"success","trial_type","trial_index","time_elapsed","internal_node_id","start_time","Id","rt","responses","stimulus","button_pressed","Prueba","X_left","X_right","Y_top","Y_bottom","Circles","Crosses","key_press"
"true","fullscreen","0","3713","0.0-0.0","1528570819035","11-10","","","","","","","","","","","",""
"","survey-text","1","13015","0.0-1.0","1528570819035","11-10","9299","{""Q0"":""11-10""}","","","","","","","","","",""
"","my_image_button","2","29664","0.0-2.0-0.0","1528570819035","11-10","16646","","img/caja.png","0","","","","","","","",""
"","my_image_button","3","48192","0.0-2.0-1.0","1528570819035","11-10","18527","","img/caja_con_ejemplos.png","0","","","","","","","",""
"","my_image_button","4","59778","0.0-2.0-2.0","1528570819035","11-10","11585","","","0","","","","","","","",""
"","teacher","5","80154","0.0-3.0-0.0","1528570819035","11-10","7948","","","","true","212.1","395.83","648.98","793.05","[237,674],[270,674]","","null"
"","teacher","6","94275","0.0-3.0-1.0","1528570819035","11-10","6190","","","","true","414.12","723.18","207.21","609.05","[577,417]","[381,402]","null"
"","teacher","7","108274","0.0-3.0-2.0","1528570819035","11-10","8727","","","","true","763.68","860.88","402.18","673.22","","[746,529],[874,531]","null"
"","teacher","8","118923","0.0-3.0-3.0","1528570819035","11-10","7311","","","","true","547.38","716.36","654.4","851.89","[641,671],[644,843]","","null"
"","check_point_button","9","134951","0.0-4.0","1528570819035","11-10","16027","","<p><font size='25px'>ENTONCES, ¿QUÉ TENÉS QUE HACER? </font></p>","0","","","","","","","",""
"","html-button-response","10","145223","0.0-5.0","1528570819035","11-10","10272","","<p align='center' style='font-size:25px;' > HAY 10 NIVELES <br> ¿ESTÁS LISTO/A PARA EMPEZAR? </p>","0","","","","","","","",""
"","teacher","11","167671","0.0-6.0-0.0","1528570819035","11-10","15887","","","","false","219.21","596.05","350.56","649.19","[235,635]","[601,347]","null"
"","teacher","12","185015","0.0-6.0-1.0","1528570819035","11-10","15695","","","","false","487.53","628.19","583.43","858.93","","[554,571],[633,864]","null"
"","teacher","13","195257","0.0-6.0-2.0","1528570819035","11-10","8607","","","","false","598.52","695.72","120.14","580.87","","[638,105],[649,597]","null"
"","teacher","14","208563","0.0-6.0-3.0","1528570819035","11-10","10823","","","","false","646.7","839.23","180.83","278.03","[838,232]","[645,225]","null"
"","teacher","15","214553","0.0-6.0-4.0","1528570819035","11-10","4580","","","","false","345.71","605.31","556.86","667.76","[352,562]","[610,668]","null"
"","check_point_button","16","218906","0.0-7.0","1528570819035","11-10","4351","","<p><font size='25'>¡FELICITACIONES! <br><br> TERMINASTE EL NIVEL 1</font></p>","0","","","","","","","",""
"","teacher","17","230226","0.0-8.0-0.0","1528570819035","11-10","8534","","","","false","153.01","335.8","124.04","731.56","[160,131]","[342,736]","null"
"","teacher","18","238650","0.0-8.0-1.0","1528570819035","11-10","6935","","","","false","722.43","828.25","573.22","838","","[770,560],[774,858]","null"
"","teacher","19","248794","0.0-8.0-2.0","1528570819035","11-10","8462","","","","false","557.06","659.71","409.99","600.28","[613,415]","[558,605]","null"
"","teacher","20","258508","0.0-8.0-3.0","1528570819035","11-10","8529","","","","false","97.57","194.77","417.06","620.14","","[210,519],[88,516]","null"
"","teacher","21","265836","0.0-8.0-4.0","1528570819035","11-10","6197","","","","false","117.65","214.85","331.47","428.67","[122,336]","[222,433]","null"
"","check_point_button","22","267429","0.0-9.0","1528570819035","11-10","1591","","<p><font size='25'>¡FELICITACIONES! <br><br> TERMINASTE EL NIVEL 2</font></p>","0","","","","","","","",""
"","teacher","23","274692","0.0-10.0-0.0","1528570819035","11-10","6143","","","","false","176.36","328.49","755.01","852.21","","[260,741],[255,864]","null"
"","teacher","24","280660","0.0-10.0-1.0","1528570819035","11-10","4871","","","","false","706.61","803.81","132.96","281.68","","[704,127],[811,287]","null"
"","teacher","25","288148","0.0-10.0-2.0","1528570819035","11-10","5431","","","","false","160.1","430.85","640.33","765.43","[170,647],[414,758]","","null"
"","teacher","26","295293","0.0-10.0-3.0","1528570819035","11-10","5168","","","","false","128.6","562.08","292.34","389.54","[560,343]","[110,332]","null"
"","teacher","27","312293","0.0-10.0-4.0","1528570819035","11-10","13023","","","","false","667.34","777.23","456.16","843","","[719,441],[781,648]","null"
"","check_point_button","28","313637","0.0-11.0","1528570819035","11-10","1343","","<p><font size='25'>¡FELICITACIONES! <br><br> TERMINASTE EL NIVEL 3</font></p>","0","","","","","","","",""
"","teacher","29","320944","0.0-12.0-0.0","1528570819035","11-10","5321","","","","false","747.97","845.17","225.26","579.36","[794,577]","[803,213]","null"
"","teacher","30","330160","0.0-12.0-1.0","1528570819035","11-10","7685","","","","false","167.94","864.92","710.69","807.89","[862,807]","[165,757]","null"
"","teacher","31","337664","0.0-12.0-2.0","1528570819035","11-10","5894","","","","false","310.43","567.28","533.75","742.23","[560,741]","[317,532]","null"
"","teacher","32","349535","0.0-12.0-3.0","1528570819035","11-10","9623","","","","false","270.84","521.76","149.68","672.82","","[279,148],[522,659]","null"
"","teacher","33","357888","0.0-12.0-4.0","1528570819035","11-10","6622","","","","false","452.02","549.22","257.38","567.58","[502,566]","[504,248]","null"
"","check_point_button","34","359648","0.0-13.0","1528570819035","11-10","1760","","<p><font size='25'>¡FELICITACIONES! <br><br> TERMINASTE EL NIVEL 4</font></p>","0","","","","","","","",""
"","teacher","35","369889","0.0-14.0-0.0","1528570819035","11-10","7222","","","","false","277.89","842.84","117.84","215.04","[284,212]","[857,134]","null"
"","teacher","36","374248","0.0-14.0-1.0","1528570819035","11-10","3334","","","","false","293.48","580.17","295.52","392.72","","[283,340],[595,345]","null"
"","teacher","37","380035","0.0-14.0-2.0","1528570819035","11-10","4046","","","","false","178.55","761.64","104.89","202.09","[185,111],[759,199]","","null"
"","teacher","38","390268","0.0-14.0-3.0","1528570819035","11-10","8703","","","","false","249.31","725.07","325.86","459.91","[723,383]","[243,383]","null"
"","teacher","39","399139","0.0-14.0-4.0","1528570819035","11-10","7503","","","","false","584.2","791.64","351.32","712.97","[684,356]","[688,717]","null"
"","check_point_button","40","400467","0.0-15.0","1528570819035","11-10","1327","","<p><font size='25'>¡FELICITACIONES! <br><br> TERMINASTE EL NIVEL 5</font></p>","0","","","","","","","",""
"","html-button-response","41","412892","0.0-16.0","1528570819035","11-10","12423","","<p align='center' style='font-size:25px;' > ¡ACORDATE DE QUE CON ESTAS PISTAS OTRO JUGADOR TENDRÁ QUE ADIVINAR EN DÓNDE ESTÁ LA CAJA! </p>","0","","","","","","","",""
"","teacher","42","433884","0.0-17.0-0.0","1528570819035","11-10","19086","","","","false","401.86","833.68","116.26","525.68","[624,119]","[836,526]","null"
"","teacher","43","443311","0.0-17.0-1.0","1528570819035","11-10","8280","","","","false","715.54","812.74","350.37","774.37","[768,772]","[815,349]","null"
"","teacher","44","456295","0.0-17.0-2.0","1528570819035","11-10","11286","","","","false","246.07","343.27","245.4","778.15","[342,250]","[245,780]","null"
"","teacher","45","463071","0.0-17.0-3.0","1528570819035","11-10","4375","","","","false","294.41","407.6","683.56","780.76","[299,687]","[411,785]","null"
"","teacher","46","469463","0.0-17.0-4.0","1528570819035","11-10","4295","","","","false","515","737.47","429.56","653.45","","[613,427],[628,657]","null"
"","check_point_button","47","470767","0.0-18.0","1528570819035","11-10","1304","","<p><font size='25'>¡FELICITACIONES! <br><br> TERMINASTE EL NIVEL 6</font></p>","0","","","","","","","",""
"","teacher","48","481648","0.0-19.0-0.0","1528570819035","11-10","9029","","","","false","673.72","770.92","186.53","873.01","[679,871]","[729,185]","null"
"","teacher","49","492784","0.0-19.0-1.0","1528570819035","11-10","9447","","","","false","141.96","866.04","174.49","660.83","[864,659]","[144,174]","null"
"","teacher","50","501633","0.0-19.0-2.0","1528570819035","11-10","6446","","","","false","216.97","333.57","198.35","653.71","[279,202],[275,651]","","null"
"","teacher","51","507504","0.0-19.0-3.0","1528570819035","11-10","4566","","","","false","542.59","667.94","163.31","393.51","[666,392]","[542,160]","null"
"","teacher","52","518329","0.0-19.0-4.0","1528570819035","11-10","9343","","","","false","300.77","866.96","222.44","530.59","[860,228]","[301,532]","null"
"","check_point_button","53","519401","0.0-20.0","1528570819035","11-10","1071","","<p><font size='25'>¡FELICITACIONES! <br><br> TERMINASTE EL NIVEL 7</font></p>","0","","","","","","","",""
"","teacher","54","529185","0.0-21.0-0.0","1528570819035","11-10","7822","","","","false","224.51","873.7","764.75","862.57","[229,814]","[877,863]","null"
"","teacher","55","541137","0.0-21.0-1.0","1528570819035","11-10","9919","","","","false","685.3","872.88","448.38","741.37","[871,454]","[782,746]","null"
"","teacher","56","552737","0.0-21.0-2.0","1528570819035","11-10","9223","","","","false","763.5","860.7","278.89","546.91","[766,279],[816,544]","","null"
"","teacher","57","563244","0.0-21.0-3.0","1528570819035","11-10","9153","","","","false","628.06","768.98","288.28","766.13","","[772,287],[773,769]","null"
"","teacher","58","569100","0.0-21.0-4.0","1528570819035","11-10","4550","","","","false","637.76","786.65","324.49","756.68","[645,752]","[702,323]","null"
"","check_point_button","59","571556","0.0-22.0","1528570819035","11-10","2454","","<p><font size='25'>¡FELICITACIONES! <br><br> TERMINASTE EL NIVEL 8</font></p>","0","","","","","","","",""
"","teacher","60","581868","0.0-23.0-0.0","1528570819035","11-10","8934","","","","false","195.07","463.07","485.72","634.22","","[204,480],[473,623]","null"
"","teacher","61","589844","0.0-23.0-1.0","1528570819035","11-10","5335","","","","false","375.64","711.04","723.86","853.76","[710,852]","[372,718]","null"
"","teacher","62","596620","0.0-23.0-2.0","1528570819035","11-10","5711","","","","false","558.03","671.92","155.38","650.88","[563,650]","[615,155]","null"
"","teacher","63","605316","0.0-23.0-3.0","1528570819035","11-10","7910","","","","false","569.76","838.03","768.79","865.99","[575,827]","[842,768]","null"
"","teacher","64","613597","0.0-23.0-4.0","1528570819035","11-10","6119","","","","false","239.44","537.59","98.53","681.75","[535,106]","[237,687]","null"
"","check_point_button","65","614525","0.0-24.0","1528570819035","11-10","927","","<p><font size='25'>¡FELICITACIONES! <br><br> TERMINASTE EL NIVEL 9</font></p>","0","","","","","","","",""
"","teacher","66","624575","0.0-25.0-0.0","1528570819035","11-10","8617","","","","false","513.87","611.07","744.02","841.22","","[561,741],[521,848]","null"
"","teacher","67","629216","0.0-25.0-1.0","1528570819035","11-10","3375","","","","false","715.6","812.8","617.46","822.17","[722,820]","[815,615]","null"
"","teacher","68","635839","0.0-25.0-2.0","1528570819035","11-10","4886","","","","false","652.33","749.53","242.82","566.7","","[706,237],[761,560]","null"
"","teacher","69","641208","0.0-25.0-3.0","1528570819035","11-10","3958","","","","false","508.47","758.08","248.12","455.35","[625,453]","[621,243]","null"
"","teacher","70","646248","0.0-25.0-4.0","1528570819035","11-10","3887","","","","false","485.84","743.46","421.47","518.67","[741,515]","[483,419]","null"
"","check_point_button","71","687051","0.0-26.0","1528570819035","11-10","40802","","<p align='center' style='font-size:30px;' > COMPLETASTE TODOS LOS NIVELES  <br><br> ¡FELICITACIONES!<br><br> PRESIONA CUALQUIER TECLA PARA TERMINAR</p>","0","","","","","","","",""
