"success","trial_type","trial_index","time_elapsed","internal_node_id","start_time","Id","rt","responses","stimulus","button_pressed","Prueba","X_left","X_right","Y_top","Y_bottom","Circles","Crosses","key_press"
"true","fullscreen","0","2652","0.0-0.0","1528668351938","110-11","","","","","","","","","","","",""
"","survey-text","1","7123","0.0-1.0","1528668351938","110-11","4468","{""Q0"":""110-11""}","","","","","","","","","",""
"","my_image_button","2","24851","0.0-2.0-0.0","1528668351938","110-11","17727","","img/caja.png","0","","","","","","","",""
"","my_image_button","3","43139","0.0-2.0-1.0","1528668351938","110-11","18287","","img/caja_con_ejemplos.png","0","","","","","","","",""
"","my_image_button","4","44427","0.0-2.0-2.0","1528668351938","110-11","1287","","","0","","","","","","","",""
"","teacher","5","76783","0.0-3.0-0.0","1528668351938","110-11","19129","","","","true","648.58","835.05","670.48","767.68","[689,730],[758,707]","","null"
"","teacher","6","84926","0.0-3.0-1.0","1528668351938","110-11","5374","","","","true","162.03","404.1","657.27","754.47","[213,691],[337,720]","","null"
"","teacher","7","90871","0.0-3.0-2.0","1528668351938","110-11","3566","","","","true","585.57","770.3","175.93","660.79","[633,220],[699,634]","","null"
"","teacher","8","96479","0.0-3.0-3.0","1528668351938","110-11","3447","","","","true","481.77","578.97","623.84","764.8","[513,646],[522,751]","","null"
"","check_point_button","9","120703","0.0-4.0","1528668351938","110-11","24223","","<p><font size='25px'>ENTONCES, ¿QUÉ TENÉS QUE HACER? </font></p>","0","","","","","","","",""
"","html-button-response","10","123441","0.0-5.0","1528668351938","110-11","2736","","<p align='center' style='font-size:25px;' > HAY 10 NIVELES <br> ¿ESTÁS LISTO/A PARA EMPEZAR? </p>","0","","","","","","","",""
"","teacher","11","135137","0.0-6.0-0.0","1528668351938","110-11","10542","","","","false","284.41","836.76","540.08","663.13","[306,570],[832,657]","","null"
"","teacher","12","139849","0.0-6.0-1.0","1528668351938","110-11","3815","","","","false","713.16","810.36","453.13","780.22","[718,458],[808,778]","","null"
"","teacher","13","144058","0.0-6.0-2.0","1528668351938","110-11","3087","","","","false","347.88","871.66","616.52","713.72","[390,655],[752,689]","","null"
"","teacher","14","146570","0.0-6.0-3.0","1528668351938","110-11","1742","","","","false","482.99","841.47","531.34","688.75","[510,559],[813,668]","","null"
"","teacher","15","148850","0.0-6.0-4.0","1528668351938","110-11","1326","","","","false","433.06","545.4","536.76","728.29","[484,579],[507,705]","","null"
"","check_point_button","16","151787","0.0-7.0","1528668351938","110-11","2935","","<p><font size='25'>¡FELICITACIONES! <br><br> TERMINASTE EL NIVEL 1</font></p>","0","","","","","","","",""
"","teacher","17","155434","0.0-8.0-0.0","1528668351938","110-11","2903","","","","false","505.79","636.95","220.77","787.01","[526,237],[616,773]","","null"
"","teacher","18","161154","0.0-8.0-1.0","1528668351938","110-11","4311","","","","false","355.78","598.47","552.12","789.64","[382,575]","[472,514]","null"
"","teacher","19","173058","0.0-8.0-2.0","1528668351938","110-11","10718","","","","false","666.41","773.34","370.73","501.53","[677,438]","[653,436]","null"
"","teacher","20","178034","0.0-8.0-3.0","1528668351938","110-11","3759","","","","false","134.09","231.29","478.67","591.32","[143,492]","[145,472]","null"
"","teacher","21","190877","0.0-8.0-4.0","1528668351938","110-11","11673","","","","false","380.02","863.62","247.87","833.91","[386,255],[859,829]","","null"
"","check_point_button","22","192510","0.0-9.0","1528668351938","110-11","1631","","<p><font size='25'>¡FELICITACIONES! <br><br> TERMINASTE EL NIVEL 2</font></p>","0","","","","","","","",""
"","teacher","23","197357","0.0-10.0-0.0","1528668351938","110-11","4150","","","","false","591.63","688.83","272.63","834.13","[600,279],[682,825]","","null"
"","teacher","24","201398","0.0-10.0-1.0","1528668351938","110-11","3031","","","","false","629.63","748.75","707.19","834.71","[684,777]","[678,690]","null"
"","teacher","25","205094","0.0-10.0-2.0","1528668351938","110-11","2806","","","","false","762.12","859.32","705.02","802.22","","[748,746],[809,690]","null"
"","teacher","26","209348","0.0-10.0-3.0","1528668351938","110-11","3038","","","","false","209.29","780.84","747.7","844.9","[274,785]","[808,801]","null"
"","teacher","27","216809","0.0-10.0-4.0","1528668351938","110-11","6536","","","","false","585.95","757.63","724.1","821.3","[596,780]","[592,679]","null"
"","check_point_button","28","218533","0.0-11.0","1528668351938","110-11","1723","","<p><font size='25'>¡FELICITACIONES! <br><br> TERMINASTE EL NIVEL 3</font></p>","0","","","","","","","",""
"","teacher","29","223253","0.0-12.0-0.0","1528668351938","110-11","3255","","","","false","739.55","856.02","113.22","403.03","","[750,103],[770,425]","null"
"","teacher","30","226341","0.0-12.0-1.0","1528668351938","110-11","1894","","","","false","685.96","783.16","272.93","592.54","[729,471],[731,383]","","null"
"","teacher","31","232333","0.0-12.0-2.0","1528668351938","110-11","4767","","","","false","185.74","693.91","699.34","796.54","[204,714]","[803,727]","null"
"","teacher","32","237709","0.0-12.0-3.0","1528668351938","110-11","4574","","","","false","493.53","613.99","567.27","711.21","[505,707]","[548,311]","null"
"","teacher","33","246606","0.0-12.0-4.0","1528668351938","110-11","5663","","","","false","350.35","563.8","148.65","307.45","[372,177]","[692,525]","null"
"","check_point_button","34","248453","0.0-13.0","1528668351938","110-11","1846","","<p><font size='25'>¡FELICITACIONES! <br><br> TERMINASTE EL NIVEL 4</font></p>","0","","","","","","","",""
"","teacher","35","252568","0.0-14.0-0.0","1528668351938","110-11","3416","","","","false","297.01","516.5","248.01","826.9","[310,266],[510,822]","","null"
"","teacher","36","255304","0.0-14.0-1.0","1528668351938","110-11","1934","","","","false","562.38","825.83","503.93","650.04","[583,538],[749,587]","","null"
"","teacher","37","257904","0.0-14.0-2.0","1528668351938","110-11","1727","","","","false","692.52","843.94","625.59","722.79","[742,651]","[768,482]","null"
"","teacher","38","265976","0.0-14.0-3.0","1528668351938","110-11","6263","","","","false","113.3","243.18","304.69","401.89","[169,356]","[183,218]","null"
"","teacher","39","271400","0.0-14.0-4.0","1528668351938","110-11","3230","","","","false","729.77","826.97","514.59","611.79","","[774,489],[779,643]","null"
"","check_point_button","40","272768","0.0-15.0","1528668351938","110-11","1367","","<p><font size='25'>¡FELICITACIONES! <br><br> TERMINASTE EL NIVEL 5</font></p>","0","","","","","","","",""
"","html-button-response","41","277792","0.0-16.0","1528668351938","110-11","5024","","<p align='center' style='font-size:25px;' > ¡ACORDATE DE QUE CON ESTAS PISTAS OTRO JUGADOR TENDRÁ QUE ADIVINAR EN DÓNDE ESTÁ LA CAJA! </p>","0","","","","","","","",""
"","teacher","42","281305","0.0-17.0-0.0","1528668351938","110-11","2647","","","","false","746.11","843.31","596.89","817.06","[785,627],[800,803]","","null"
"","teacher","43","287913","0.0-17.0-1.0","1528668351938","110-11","4630","","","","false","98.42","264.69","398.88","516.92","[102,402],[263,515]","","null"
"","teacher","44","292281","0.0-17.0-2.0","1528668351938","110-11","2974","","","","false","503.93","731.36","326.89","450.98","[508,330]","[736,459]","null"
"","teacher","45","298017","0.0-17.0-3.0","1528668351938","110-11","4318","","","","false","228.79","500.82","398.33","644.12","","[504,648],[228,397]","null"
"","teacher","46","302480","0.0-17.0-4.0","1528668351938","110-11","3679","","","","false","694.1","791.3","365.98","771.64","[785,766]","[692,364]","null"
"","check_point_button","47","303785","0.0-18.0","1528668351938","110-11","1303","","<p><font size='25'>¡FELICITACIONES! <br><br> TERMINASTE EL NIVEL 6</font></p>","0","","","","","","","",""
"","teacher","48","306425","0.0-19.0-0.0","1528668351938","110-11","1631","","","","false","379.1","536.39","228.15","416.58","[434,294],[446,362]","","null"
"","teacher","49","310700","0.0-19.0-1.0","1528668351938","110-11","3031","","","","false","268.47","365.67","139.52","410.45","[306,147]","[315,422]","null"
"","teacher","50","316540","0.0-19.0-2.0","1528668351938","110-11","4815","","","","false","638.37","778.5","326.94","713.15","[650,336],[768,712]","","null"
"","teacher","51","320061","0.0-19.0-3.0","1528668351938","110-11","2774","","","","false","596.67","841.2","611.53","737.05","[603,621],[835,726]","","null"
"","teacher","52","326293","0.0-19.0-4.0","1528668351938","110-11","5375","","","","false","439.33","537.41","133.3","857.09","[447,143],[532,853]","","null"
"","check_point_button","53","327917","0.0-20.0","1528668351938","110-11","1623","","<p><font size='25'>¡FELICITACIONES! <br><br> TERMINASTE EL NIVEL 7</font></p>","0","","","","","","","",""
"","teacher","54","331508","0.0-21.0-0.0","1528668351938","110-11","2638","","","","false","158.34","577.85","639.46","784.3","[183,660],[567,776]","","null"
"","teacher","55","335213","0.0-21.0-1.0","1528668351938","110-11","2486","","","","false","638.69","785.14","233.46","763.42","","[723,78],[403,802]","null"
"","teacher","56","339893","0.0-21.0-2.0","1528668351938","110-11","3975","","","","false","193.08","482.09","253.73","851.15","","[337,200],[344,887]","null"
"","teacher","57","343325","0.0-21.0-3.0","1528668351938","110-11","2335","","","","false","179","757.6","758.73","855.93","","[153,804],[798,793]","null"
"","teacher","58","346701","0.0-21.0-4.0","1528668351938","110-11","2502","","","","false","358.77","778.88","259.14","556.33","","[568,223],[842,426]","null"
"","check_point_button","59","348277","0.0-22.0","1528668351938","110-11","1575","","<p><font size='25'>¡FELICITACIONES! <br><br> TERMINASTE EL NIVEL 8</font></p>","0","","","","","","","",""
"","teacher","60","353461","0.0-23.0-0.0","1528668351938","110-11","3974","","","","false","775.69","872.89","160.75","314.56","","[803,137],[837,777]","null"
"","teacher","61","358349","0.0-23.0-1.0","1528668351938","110-11","3183","","","","false","717.79","873.9","643.22","849.5","[724,655]","[886,791]","null"
"","teacher","62","361989","0.0-23.0-2.0","1528668351938","110-11","2623","","","","false","658.45","755.65","424.69","529.51","","[701,417],[707,545]","null"
"","teacher","63","366837","0.0-23.0-3.0","1528668351938","110-11","4006","","","","false","592.51","795.02","748.45","845.65","[769,806]","[577,794]","null"
"","teacher","64","369821","0.0-23.0-4.0","1528668351938","110-11","2079","","","","false","328.55","425.75","713.8","812.84","[374,747],[374,786]","","null"
"","check_point_button","65","371424","0.0-24.0","1528668351938","110-11","1601","","<p><font size='25'>¡FELICITACIONES! <br><br> TERMINASTE EL NIVEL 9</font></p>","0","","","","","","","",""
"","teacher","66","377304","0.0-25.0-0.0","1528668351938","110-11","4838","","","","false","103.2","377.73","630.25","874.45","","[234,610],[393,766]","null"
"","teacher","67","384497","0.0-25.0-1.0","1528668351938","110-11","6407","","","","false","274.48","497.01","279.86","750.16","","[373,277],[378,753]","null"
"","teacher","68","391920","0.0-25.0-2.0","1528668351938","110-11","6016","","","","false","580.98","871.56","271.98","760.26","[584,273]","[873,761]","null"
"","teacher","69","397129","0.0-25.0-3.0","1528668351938","110-11","3743","","","","false","668.67","810.88","401.1","718.45","","[742,397],[753,721]","null"
"","teacher","70","400976","0.0-25.0-4.0","1528668351938","110-11","2422","","","","false","252.69","611.53","238.2","337.37","","[429,236],[430,342]","null"
"","check_point_button","71","408297","0.0-26.0","1528668351938","110-11","7320","","<p align='center' style='font-size:30px;' > COMPLETASTE TODOS LOS NIVELES  <br><br> ¡FELICITACIONES!<br><br> PRESIONA CUALQUIER TECLA PARA TERMINAR</p>","0","","","","","","","",""
