"success","trial_type","trial_index","time_elapsed","internal_node_id","start_time","Id","rt","responses","stimulus","button_pressed","Prueba","X_left","X_right","Y_top","Y_bottom","Circles","Crosses","key_press"
"true","fullscreen","0","2150","0.0-0.0","1528574616309","26-7","","","","","","","","","","","",""
"","survey-text","1","8028","0.0-1.0","1528574616309","26-7","5875","{""Q0"":""26-7""}","","","","","","","","","",""
"","my_image_button","2","20834","0.0-2.0-0.0","1528574616309","26-7","12804","","img/caja.png","0","","","","","","","",""
"","my_image_button","3","38059","0.0-2.0-1.0","1528574616309","26-7","17222","","img/caja_con_ejemplos.png","0","","","","","","","",""
"","my_image_button","4","53947","0.0-2.0-2.0","1528574616309","26-7","15886","","","0","","","","","","","",""
"","teacher","5","75501","0.0-3.0-0.0","1528574616309","26-7","10055","","","","true","192.5","621.82","286.1","516.75","[285,381],[327,357]","","null"
"","teacher","6","88549","0.0-3.0-1.0","1528574616309","26-7","6694","","","","true","205.14","866.92","764.25","863.05","[225,819],[844,815]","","null"
"","teacher","7","117614","0.0-3.0-2.0","1528574616309","26-7","13998","","","","true","245.12","342.32","164.32","826.45","","[302,852],[296,139]","null"
"","teacher","8","132913","0.0-3.0-3.0","1528574616309","26-7","8953","","","","true","447.75","807.63","495.83","791.93","[465,656],[794,656]","","null"
"","check_point_button","9","155641","0.0-4.0","1528574616309","26-7","22727","","<p><font size='25px'>ENTONCES, ¿QUÉ TENÉS QUE HACER? </font></p>","0","","","","","","","",""
"","html-button-response","10","169992","0.0-5.0","1528574616309","26-7","14350","","<p align='center' style='font-size:25px;' > HAY 10 NIVELES <br> ¿ESTÁS LISTO/A PARA EMPEZAR? </p>","0","","","","","","","",""
"","teacher","11","187955","0.0-6.0-0.0","1528574616309","26-7","16155","","","","false","563.02","719.72","116.83","355.12","[572,347],[713,131]","","null"
"","teacher","12","195867","0.0-6.0-1.0","1528574616309","26-7","6503","","","","false","340.08","497.44","602.67","828.61","[407,820],[411,608]","","null"
"","teacher","13","203667","0.0-6.0-2.0","1528574616309","26-7","5917","","","","false","687.72","871.81","457.98","781.36","[776,774],[783,469]","","null"
"","teacher","14","213130","0.0-6.0-3.0","1528574616309","26-7","6998","","","","false","589.36","686.56","375.16","472.36","[680,420],[595,423]","","null"
"","teacher","15","220795","0.0-6.0-4.0","1528574616309","26-7","5663","","","","false","504.8","813.24","204.54","516.42","[648,508],[657,217]","","null"
"","check_point_button","16","231683","0.0-7.0","1528574616309","26-7","10887","","<p><font size='25'>¡FELICITACIONES! <br><br> TERMINASTE EL NIVEL 1</font></p>","0","","","","","","","",""
"","teacher","17","246973","0.0-8.0-0.0","1528574616309","26-7","13253","","","","false","773.49","870.69","326.19","651.44","[827,338],[819,642]","","null"
"","teacher","18","253302","0.0-8.0-1.0","1528574616309","26-7","4695","","","","false","561.22","724.09","622.77","856.45","[646,634]","[629,878]","null"
"","teacher","19","263709","0.0-8.0-2.0","1528574616309","26-7","7902","","","","false","618.17","748.62","724.55","821.75","[680,807],[681,732]","","null"
"","teacher","20","273053","0.0-8.0-3.0","1528574616309","26-7","7311","","","","false","266.01","411.31","724.68","821.88","","[340,717],[338,830]","null"
"","teacher","21","288222","0.0-8.0-4.0","1528574616309","26-7","9031","","","","false","604.64","701.84","535.04","632.24","[651,630],[655,541]","","null"
"","check_point_button","22","290799","0.0-9.0","1528574616309","26-7","2575","","<p><font size='25'>¡FELICITACIONES! <br><br> TERMINASTE EL NIVEL 2</font></p>","0","","","","","","","",""
"","teacher","23","299790","0.0-10.0-0.0","1528574616309","26-7","6958","","","","false","652.98","750.18","426.01","534.13","[703,529],[712,432]","","null"
"","teacher","24","310225","0.0-10.0-1.0","1528574616309","26-7","7441","","","","false","254.59","413.96","320.27","807.27","","[325,815],[343,312]","null"
"","teacher","25","320522","0.0-10.0-2.0","1528574616309","26-7","6839","","","","false","267.28","364.48","401.24","778.41","[308,774],[318,407]","","null"
"","teacher","26","328905","0.0-10.0-3.0","1528574616309","26-7","6894","","","","false","177.59","274.79","673.53","813.79","","[279,745],[173,750]","null"
"","teacher","27","340307","0.0-10.0-4.0","1528574616309","26-7","7087","","","","false","126.04","378.47","720.81","818.01","[128,774]","[380,773]","null"
"","check_point_button","28","343201","0.0-11.0","1528574616309","26-7","2893","","<p><font size='25'>¡FELICITACIONES! <br><br> TERMINASTE EL NIVEL 3</font></p>","0","","","","","","","",""
"","teacher","29","354202","0.0-12.0-0.0","1528574616309","26-7","8366","","","","false","629.45","726.65","414.77","819.78","[680,816],[685,420]","","null"
"","teacher","30","364649","0.0-12.0-1.0","1528574616309","26-7","8135","","","","false","224.55","591.04","510.72","648.28","","[596,587],[218,590]","null"
"","teacher","31","370836","0.0-12.0-2.0","1528574616309","26-7","4481","","","","false","120.62","266.33","558.13","809.6","[194,568],[195,804]","","null"
"","teacher","32","377844","0.0-12.0-3.0","1528574616309","26-7","5221","","","","false","209.14","542.67","361.66","458.86","[215,403],[537,405]","","null"
"","teacher","33","388004","0.0-12.0-4.0","1528574616309","26-7","8334","","","","false","484.72","827.61","540.72","764.7","","[653,771],[654,533]","null"
"","check_point_button","34","390308","0.0-13.0","1528574616309","26-7","2303","","<p><font size='25'>¡FELICITACIONES! <br><br> TERMINASTE EL NIVEL 4</font></p>","0","","","","","","","",""
"","teacher","35","399589","0.0-14.0-0.0","1528574616309","26-7","7638","","","","false","552.29","840.38","536.82","734.11","[674,728],[683,544]","","null"
"","teacher","36","407036","0.0-14.0-1.0","1528574616309","26-7","5591","","","","false","494.7","591.9","696.07","867.95","","[559,874],[555,694]","null"
"","teacher","37","414605","0.0-14.0-2.0","1528574616309","26-7","5471","","","","false","277.84","442.76","119.72","823.61","[369,818],[361,127]","","null"
"","teacher","38","420812","0.0-14.0-3.0","1528574616309","26-7","4423","","","","false","295.37","537.68","622.4","805.43","","[448,812],[447,615]","null"
"","teacher","39","428822","0.0-14.0-4.0","1528574616309","26-7","5246","","","","false","655.77","752.97","534.15","856.94","[703,851],[706,538]","","null"
"","check_point_button","40","431230","0.0-15.0","1528574616309","26-7","2407","","<p><font size='25'>¡FELICITACIONES! <br><br> TERMINASTE EL NIVEL 5</font></p>","0","","","","","","","",""
"","html-button-response","41","438134","0.0-16.0","1528574616309","26-7","6903","","<p align='center' style='font-size:25px;' > ¡ACORDATE DE QUE CON ESTAS PISTAS OTRO JUGADOR TENDRÁ QUE ADIVINAR EN DÓNDE ESTÁ LA CAJA! </p>","0","","","","","","","",""
"","teacher","42","450798","0.0-17.0-0.0","1528574616309","26-7","8726","","","","false","440.51","537.71","133.22","513.48","[493,511],[488,138]","","null"
"","teacher","43","458638","0.0-17.0-1.0","1528574616309","26-7","6135","","","","false","447.14","544.34","341.46","438.66","[490,434],[498,347]","","null"
"","teacher","44","470054","0.0-17.0-2.0","1528574616309","26-7","8527","","","","false","296.85","673.03","614.15","711.35","","[678,665],[287,662]","null"
"","teacher","45","478342","0.0-17.0-3.0","1528574616309","26-7","6039","","","","false","464.17","561.37","239.98","337.18","[518,331],[517,244]","","null"
"","teacher","46","486935","0.0-17.0-4.0","1528574616309","26-7","6470","","","","false","608.31","705.51","340.42","719.71","","[663,725],[660,333]","null"
"","check_point_button","47","489025","0.0-18.0","1528574616309","26-7","2090","","<p><font size='25'>¡FELICITACIONES! <br><br> TERMINASTE EL NIVEL 6</font></p>","0","","","","","","","",""
"","teacher","48","499122","0.0-19.0-0.0","1528574616309","26-7","7567","","","","false","478.63","753.64","382.73","567.96","[486,484],[748,486]","","null"
"","teacher","49","510113","0.0-19.0-1.0","1528574616309","26-7","9174","","","","false","712.02","818.23","395.71","738.63","","[763,747],[768,390]","null"
"","teacher","50","519378","0.0-19.0-2.0","1528574616309","26-7","7246","","","","false","359.06","456.26","198.84","700.52","[398,695],[406,207]","","null"
"","teacher","51","531946","0.0-19.0-3.0","1528574616309","26-7","11182","","","","false","750.34","847.54","365.56","834.47","","[852,616],[745,614]","null"
"","teacher","52","540634","0.0-19.0-4.0","1528574616309","26-7","6458","","","","false","743.36","856.36","394.06","689.49","[798,685],[805,398]","","null"
"","check_point_button","53","543699","0.0-20.0","1528574616309","26-7","3063","","<p><font size='25'>¡FELICITACIONES! <br><br> TERMINASTE EL NIVEL 7</font></p>","0","","","","","","","",""
"","teacher","54","555005","0.0-21.0-0.0","1528574616309","26-7","9088","","","","false","202.64","403.04","407.81","602.96","[314,598],[311,412]","","null"
"","teacher","55","563501","0.0-21.0-1.0","1528574616309","26-7","6614","","","","false","169.55","266.75","165.02","499.69","","[216,504],[219,164]","null"
"","teacher","56","572165","0.0-21.0-2.0","1528574616309","26-7","6798","","","","false","567.42","869.68","615.88","713.08","[571,675],[869,673]","","null"
"","teacher","57","579653","0.0-21.0-3.0","1528574616309","26-7","5592","","","","false","725.63","851.26","602.72","699.92","[787,696],[785,608]","","null"
"","teacher","58","591677","0.0-21.0-4.0","1528574616309","26-7","8279","","","","false","413.38","856.18","399.27","496.47","[417,447],[850,446]","","null"
"","check_point_button","59","594726","0.0-22.0","1528574616309","26-7","3047","","<p><font size='25'>¡FELICITACIONES! <br><br> TERMINASTE EL NIVEL 8</font></p>","0","","","","","","","",""
"","teacher","60","606502","0.0-23.0-0.0","1528574616309","26-7","9222","","","","false","147.22","697.07","169.13","266.33","[696,221],[152,219]","","null"
"","teacher","61","613567","0.0-23.0-1.0","1528574616309","26-7","5352","","","","false","153.57","250.77","573.16","793.22","[209,791],[211,579]","","null"
"","teacher","62","624272","0.0-23.0-2.0","1528574616309","26-7","8704","","","","false","368.54","465.74","416.39","824.34","","[415,829],[423,411]","null"
"","teacher","63","635088","0.0-23.0-3.0","1528574616309","26-7","9117","","","","false","646.77","835.43","485.2","759.53","[653,662],[832,666]","","null"
"","teacher","64","644913","0.0-23.0-4.0","1528574616309","26-7","7806","","","","false","123.36","220.56","248.93","840.06","[169,837]","[179,242]","null"
"","check_point_button","65","647688","0.0-24.0","1528574616309","26-7","2775","","<p><font size='25'>¡FELICITACIONES! <br><br> TERMINASTE EL NIVEL 9</font></p>","0","","","","","","","",""
"","teacher","66","660464","0.0-25.0-0.0","1528574616309","26-7","10997","","","","false","495.54","853.3","495.9","873.07","[655,502],[657,869]","","null"
"","teacher","67","670953","0.0-25.0-1.0","1528574616309","26-7","8247","","","","false","710.34","852.07","180.04","298.16","","[776,309],[781,174]","null"
"","teacher","68","681140","0.0-25.0-2.0","1528574616309","26-7","8136","","","","false","480.29","719.02","724.42","874.15","[485,796],[713,794]","","null"
"","teacher","69","689427","0.0-25.0-3.0","1528574616309","26-7","5783","","","","false","190.23","287.43","293.71","570.21","","[241,575],[240,289]","null"
"","teacher","70","699330","0.0-25.0-4.0","1528574616309","26-7","7231","","","","false","588.58","743.45","454.64","742.47","[674,736],[679,462]","","null"
"","check_point_button","71","721595","0.0-26.0","1528574616309","26-7","22264","","<p align='center' style='font-size:30px;' > COMPLETASTE TODOS LOS NIVELES  <br><br> ¡FELICITACIONES!<br><br> PRESIONA CUALQUIER TECLA PARA TERMINAR</p>","0","","","","","","","",""
