"success","trial_type","trial_index","time_elapsed","internal_node_id","start_time","Id","rt","responses","stimulus","button_pressed","Prueba","X_left","X_right","Y_top","Y_bottom","Circles","Crosses","key_press"
"true","fullscreen","0","4250","0.0-0.0","1528572076429","3-5","","","","","","","","","","","",""
"","survey-text","1","12648","0.0-1.0","1528572076429","3-5","8395","{""Q0"":""3-5""}","","","","","","","","","",""
"","my_image_button","2","29976","0.0-2.0-0.0","1528572076429","3-5","17326","","img/caja.png","0","","","","","","","",""
"","my_image_button","3","46271","0.0-2.0-1.0","1528572076429","3-5","16295","","img/caja_con_ejemplos.png","0","","","","","","","",""
"","my_image_button","4","57057","0.0-2.0-2.0","1528572076429","3-5","10784","","","0","","","","","","","",""
"","teacher","5","100516","0.0-3.0-0.0","1528572076429","3-5","30288","","","","true","520.28","811.41","222.53","503.29","","[751,637],[680,558]","null"
"","teacher","6","147255","0.0-3.0-1.0","1528572076429","3-5","29470","","","","true","261.38","788.26","605.72","705.64","[571,651],[503,667]","","null"
"","teacher","7","167528","0.0-3.0-2.0","1528572076429","3-5","11311","","","","true","213.62","775.7","241.23","338.43","[581,310],[306,284]","","null"
"","teacher","8","206978","0.0-3.0-3.0","1528572076429","3-5","35354","","","","true","428.73","587.68","141.35","695.22","","[585,785],[508,819]","null"
"","check_point_button","9","215131","0.0-4.0","1528572076429","3-5","8152","","<p><font size='25px'>ENTONCES, ¿QUÉ TENÉS QUE HACER? </font></p>","0","","","","","","","",""
"","html-button-response","10","219482","0.0-5.0","1528572076429","3-5","4350","","<p align='center' style='font-size:25px;' > HAY 10 NIVELES <br> ¿ESTÁS LISTO/A PARA EMPEZAR? </p>","0","","","","","","","",""
"","teacher","11","230130","0.0-6.0-0.0","1528572076429","3-5","9430","","","","false","527.59","862.99","558.67","655.87","[623,617]","[299,406]","null"
"","teacher","12","248130","0.0-6.0-1.0","1528572076429","3-5","12302","","","","false","275.11","434.52","377.46","666.62","[338,498]","[330,777]","null"
"","teacher","13","272333","0.0-6.0-2.0","1528572076429","3-5","20242","","","","false","678.39","775.59","502.07","599.27","[741,554]","[760,680]","null"
"","teacher","14","286813","0.0-6.0-3.0","1528572076429","3-5","9903","","","","false","373.86","670.5","727.58","861.07","[557,762]","[549,932]","null"
"","teacher","15","306838","0.0-6.0-4.0","1528572076429","3-5","9599","","","","false","422.14","529.69","453.52","550.72","[509,509]","[466,678]","null"
"","check_point_button","16","315462","0.0-7.0","1528572076429","3-5","8623","","<p><font size='25'>¡FELICITACIONES! <br><br> TERMINASTE EL NIVEL 1</font></p>","0","","","","","","","",""
"","teacher","17","330064","0.0-8.0-0.0","1528572076429","3-5","10391","","","","false","561.93","659.13","461.16","558.36","","[504,629],[482,721]","null"
"","teacher","18","344649","0.0-8.0-1.0","1528572076429","3-5","8111","","","","false","161.32","639.46","313.64","454.61","[540,393],[527,366]","","null"
"","teacher","19","367177","0.0-8.0-2.0","1528572076429","3-5","8814","","","","false","444.52","541.72","477.98","754.49","","[669,681],[661,633]","null"
"","teacher","20","381379","0.0-8.0-3.0","1528572076429","3-5","6246","","","","false","635.15","732.35","274.18","662","[696,342]","[782,331]","null"
"","teacher","21","392324","0.0-8.0-4.0","1528572076429","3-5","6646","","","","false","252.01","716.22","647.93","833.34","[632,724],[479,740]","","null"
"","check_point_button","22","397900","0.0-9.0","1528572076429","3-5","5576","","<p><font size='25'>¡FELICITACIONES! <br><br> TERMINASTE EL NIVEL 2</font></p>","0","","","","","","","",""
"","teacher","23","416452","0.0-10.0-0.0","1528572076429","3-5","14775","","","","false","177.43","828.84","192.91","698.12","","[579,849],[637,939]","null"
"","teacher","24","429125","0.0-10.0-1.0","1528572076429","3-5","7975","","","","false","703.59","858.08","499.32","873.6","[810,715]","[592,219]","null"
"","teacher","25","448335","0.0-10.0-2.0","1528572076429","3-5","11319","","","","false","464.56","561.76","201.46","507.57","[548,230]","[170,792]","null"
"","teacher","26","457592","0.0-10.0-3.0","1528572076429","3-5","6223","","","","false","665.66","800.57","669.13","791.37","[779,709],[695,765]","","null"
"","teacher","27","469624","0.0-10.0-4.0","1528572076429","3-5","5215","","","","false","582.86","838.12","691.1","788.3","[789,718]","[133,183]","null"
"","check_point_button","28","487680","0.0-11.0","1528572076429","3-5","18056","","<p><font size='25'>¡FELICITACIONES! <br><br> TERMINASTE EL NIVEL 3</font></p>","0","","","","","","","",""
"","teacher","29","505673","0.0-12.0-0.0","1528572076429","3-5","11837","","","","false","452.46","672.85","766.78","866.86","[493,807],[555,837]","","null"
"","teacher","30","515474","0.0-12.0-1.0","1528572076429","3-5","5726","","","","false","527.81","723.2","192.68","551.11","","[238,575],[241,749]","null"
"","teacher","31","523162","0.0-12.0-2.0","1528572076429","3-5","4358","","","","false","104.35","535.47","684.54","864.76","","[541,910],[692,775]","null"
"","teacher","32","528802","0.0-12.0-3.0","1528572076429","3-5","3511","","","","false","343.58","440.78","584.74","714.65","","[616,457],[566,581]","null"
"","teacher","33","538978","0.0-12.0-4.0","1528572076429","3-5","6447","","","","false","164.73","479.67","246.72","763.39","[286,447],[330,457]","","null"
"","check_point_button","34","545947","0.0-13.0","1528572076429","3-5","6967","","<p><font size='25'>¡FELICITACIONES! <br><br> TERMINASTE EL NIVEL 4</font></p>","0","","","","","","","",""
"","teacher","35","559307","0.0-14.0-0.0","1528572076429","3-5","9487","","","","false","207.56","849.3","212.62","309.82","[307,266],[635,263]","","null"
"","teacher","36","564435","0.0-14.0-1.0","1528572076429","3-5","2807","","","","false","271.74","539.78","466.19","647.25","","[589,577],[619,867]","null"
"","teacher","37","577582","0.0-14.0-2.0","1528572076429","3-5","3575","","","","false","532.52","742.54","484.45","747.15","","[319,687],[433,386]","null"
"","teacher","38","583301","0.0-14.0-3.0","1528572076429","3-5","2358","","","","false","365.32","820.66","152.66","514.04","[500,347],[639,331]","","null"
"","teacher","39","591621","0.0-14.0-4.0","1528572076429","3-5","2903","","","","false","549.16","646.36","477.66","736.3","[585,656]","[388,690]","null"
"","check_point_button","40","607902","0.0-15.0","1528572076429","3-5","16279","","<p><font size='25'>¡FELICITACIONES! <br><br> TERMINASTE EL NIVEL 5</font></p>","0","","","","","","","",""
"","html-button-response","41","617854","0.0-16.0","1528572076429","3-5","9950","","<p align='center' style='font-size:25px;' > ¡ACORDATE DE QUE CON ESTAS PISTAS OTRO JUGADOR TENDRÁ QUE ADIVINAR EN DÓNDE ESTÁ LA CAJA! </p>","0","","","","","","","",""
"","teacher","42","640057","0.0-17.0-0.0","1528572076429","3-5","16783","","","","false","673.08","770.28","625.71","722.91","[748,676],[702,693]","","null"
"","teacher","43","649601","0.0-17.0-1.0","1528572076429","3-5","7143","","","","false","149.06","723.14","685.51","782.71","[690,730],[433,748]","","null"
"","teacher","44","659745","0.0-17.0-2.0","1528572076429","3-5","3014","","","","false","776.53","873.73","710.59","807.79","","[584,542],[427,780]","null"
"","teacher","45","672290","0.0-17.0-3.0","1528572076429","3-5","7559","","","","false","612.53","874.68","316.93","647.79","[740,475]","[200,534]","null"
"","teacher","46","682674","0.0-17.0-4.0","1528572076429","3-5","6871","","","","false","670.42","767.62","105.52","800.54","[720,764],[729,137]","","null"
"","check_point_button","47","687274","0.0-18.0","1528572076429","3-5","4599","","<p><font size='25'>¡FELICITACIONES! <br><br> TERMINASTE EL NIVEL 6</font></p>","0","","","","","","","",""
"","teacher","48","703995","0.0-19.0-0.0","1528572076429","3-5","11358","","","","false","704.83","802.03","767.54","864.74","","[758,571],[752,448]","null"
"","teacher","49","711053","0.0-19.0-1.0","1528572076429","3-5","3758","","","","false","514.15","611.35","303.38","855.87","[589,693]","[793,681]","null"
"","teacher","50","719645","0.0-19.0-2.0","1528572076429","3-5","4935","","","","false","448.2","623.82","624.51","721.71","[561,672],[520,678]","","null"
"","teacher","51","734293","0.0-19.0-3.0","1528572076429","3-5","8983","","","","false","241.85","339.05","241.33","798.08","","[486,413],[478,509]","null"
"","teacher","52","742300","0.0-19.0-4.0","1528572076429","3-5","3262","","","","false","262.39","680.71","435.56","749.43","[495,640],[470,472]","","null"
"","check_point_button","53","748132","0.0-20.0","1528572076429","3-5","5832","","<p><font size='25'>¡FELICITACIONES! <br><br> TERMINASTE EL NIVEL 7</font></p>","0","","","","","","","",""
"","teacher","54","759668","0.0-21.0-0.0","1528572076429","3-5","7391","","","","false","776.6","873.8","676.1","809.54","","[505,667],[481,288]","null"
"","teacher","55","765336","0.0-21.0-1.0","1528572076429","3-5","2977","","","","false","516.09","613.29","477.59","671.04","","[547,810],[495,779]","null"
"","teacher","56","771592","0.0-21.0-2.0","1528572076429","3-5","3831","","","","false","765.94","863.14","723.66","853.05","[783,804]","[626,852]","null"
"","teacher","57","782160","0.0-21.0-3.0","1528572076429","3-5","6590","","","","false","712.9","810.1","460.54","853.1","[741,595],[787,662]","","null"
"","teacher","58","796768","0.0-21.0-4.0","1528572076429","3-5","9535","","","","false","580.25","776.96","756.53","853.73","[666,801]","[530,573]","null"
"","check_point_button","59","802624","0.0-22.0","1528572076429","3-5","5854","","<p><font size='25'>¡FELICITACIONES! <br><br> TERMINASTE EL NIVEL 8</font></p>","0","","","","","","","",""
"","teacher","60","814032","0.0-23.0-0.0","1528572076429","3-5","8839","","","","false","680.48","777.68","626.71","785.13","[741,740],[757,673]","","null"
"","teacher","61","820705","0.0-23.0-1.0","1528572076429","3-5","3887","","","","false","378.69","514.93","720.22","817.42","[434,757],[430,796]","","null"
"","teacher","62","829674","0.0-23.0-2.0","1528572076429","3-5","5392","","","","false","585.7","868.21","503.48","788.24","[720,666],[686,726]","","null"
"","teacher","63","848051","0.0-23.0-3.0","1528572076429","3-5","11296","","","","false","671.89","769.09","291.55","656.35","","[548,641],[465,831]","null"
"","teacher","64","853642","0.0-23.0-4.0","1528572076429","3-5","3479","","","","false","618.47","849.38","389.85","807.67","[724,630],[691,783]","","null"
"","check_point_button","65","858667","0.0-24.0","1528572076429","3-5","5023","","<p><font size='25'>¡FELICITACIONES! <br><br> TERMINASTE EL NIVEL 9</font></p>","0","","","","","","","",""
"","teacher","66","866946","0.0-25.0-0.0","1528572076429","3-5","5446","","","","false","681.51","850.35","201.91","678.94","[791,364],[726,493]","","null"
"","teacher","67","874723","0.0-25.0-1.0","1528572076429","3-5","3245","","","","false","611.03","708.23","692.91","790.11","[691,728],[654,738]","","null"
"","teacher","68","883035","0.0-25.0-2.0","1528572076429","3-5","3559","","","","false","383.27","480.47","674.95","772.15","[453,727]","[370,597]","null"
"","teacher","69","891493","0.0-25.0-3.0","1528572076429","3-5","4665","","","","false","628.3","823.35","304.3","546.76","[723,434],[757,533]","","null"
"","teacher","70","898454","0.0-25.0-4.0","1528572076429","3-5","3695","","","","false","703.03","800.23","589.47","766.38","[753,644],[755,710]","","null"
"","check_point_button","71","935543","0.0-26.0","1528572076429","3-5","37087","","<p align='center' style='font-size:30px;' > COMPLETASTE TODOS LOS NIVELES  <br><br> ¡FELICITACIONES!<br><br> PRESIONA CUALQUIER TECLA PARA TERMINAR</p>","0","","","","","","","",""
