"success","trial_type","trial_index","time_elapsed","internal_node_id","start_time","Id","rt","responses","stimulus","button_pressed","Prueba","X_left","X_right","Y_top","Y_bottom","Circles","Crosses","key_press"
"true","fullscreen","0","2321","0.0-0.0","1528654278080","55-7","","","","","","","","","","","",""
"","survey-text","1","11164","0.0-1.0","1528654278080","55-7","8839","{""Q0"":""55-7""}","","","","","","","","","",""
"","my_image_button","2","25189","0.0-2.0-0.0","1528654278080","55-7","14023","","img/caja.png","0","","","","","","","",""
"","my_image_button","3","51178","0.0-2.0-1.0","1528654278080","55-7","25988","","img/caja_con_ejemplos.png","0","","","","","","","",""
"","my_image_button","4","53194","0.0-2.0-2.0","1528654278080","55-7","2016","","","0","","","","","","","",""
"","teacher","5","91293","0.0-3.0-0.0","1528654278080","55-7","19512","","","","true","366.28","753.1","660.68","757.88","","[426,600],[557,567]","null"
"","teacher","6","117118","0.0-3.0-1.0","1528654278080","55-7","12807","","","","true","407.66","626.72","207.83","305.03","[483,273],[555,251]","","null"
"","teacher","7","135521","0.0-3.0-2.0","1528654278080","55-7","5951","","","","true","178.85","487.21","124.65","499.38","","[143,609],[244,621]","null"
"","teacher","8","145352","0.0-3.0-3.0","1528654278080","55-7","4807","","","","true","696.63","804.55","197.6","397.94","[766,372],[726,317]","","null"
"","check_point_button","9","182554","0.0-4.0","1528654278080","55-7","37200","","<p><font size='25px'>ENTONCES, ¿QUÉ TENÉS QUE HACER? </font></p>","1","","","","","","","",""
"","html-button-response","10","184313","0.0-5.0","1528654278080","55-7","1759","","<p align='center' style='font-size:25px;' > HAY 10 NIVELES <br> ¿ESTÁS LISTO/A PARA EMPEZAR? </p>","0","","","","","","","",""
"","teacher","11","212940","0.0-6.0-0.0","1528654278080","55-7","17929","","","","false","646.72","827.72","267.31","813.38","[696,427]","[569,293]","null"
"","teacher","12","220564","0.0-6.0-1.0","1528654278080","55-7","5742","","","","false","649.51","793.62","359.75","566.7","[720,408],[717,540]","","null"
"","teacher","13","226076","0.0-6.0-2.0","1528654278080","55-7","3518","","","","false","128.76","376.83","744.33","841.53","[170,784]","[288,534]","null"
"","teacher","14","234029","0.0-6.0-3.0","1528654278080","55-7","4454","","","","false","762.61","860.23","516.9","647.24","[799,550]","[730,676]","null"
"","teacher","15","242508","0.0-6.0-4.0","1528654278080","55-7","6334","","","","false","184.46","510.6","129.74","592.43","[332,224]","[624,233]","null"
"","check_point_button","16","248428","0.0-7.0","1528654278080","55-7","5918","","<p><font size='25'>¡FELICITACIONES! <br><br> TERMINASTE EL NIVEL 1</font></p>","0","","","","","","","",""
"","teacher","17","259301","0.0-8.0-0.0","1528654278080","55-7","6168","","","","false","695.97","793.17","191.02","288.22","[752,239]","[749,342]","null"
"","teacher","18","266840","0.0-8.0-1.0","1528654278080","55-7","4617","","","","false","728.9","865.73","186.55","615.17","[805,314],[753,470]","","null"
"","teacher","19","274768","0.0-8.0-2.0","1528654278080","55-7","5279","","","","false","340.8","553.04","497.67","626.43","","[325,653],[281,466]","null"
"","teacher","20","281807","0.0-8.0-3.0","1528654278080","55-7","3990","","","","false","659.37","759","266.28","873.76","[698,809],[708,321]","","null"
"","teacher","21","290112","0.0-8.0-4.0","1528654278080","55-7","5160","","","","false","719.35","816.55","538.98","816.03","[794,777]","[672,533]","null"
"","check_point_button","22","294256","0.0-9.0","1528654278080","55-7","4142","","<p><font size='25'>¡FELICITACIONES! <br><br> TERMINASTE EL NIVEL 2</font></p>","0","","","","","","","",""
"","teacher","23","305664","0.0-10.0-0.0","1528654278080","55-7","4750","","","","false","716.84","814.04","159","541.28","","[776,135],[677,270]","null"
"","teacher","24","311143","0.0-10.0-1.0","1528654278080","55-7","2670","","","","false","686.86","839.29","155.11","840.22","[748,434],[799,512]","","null"
"","teacher","25","319280","0.0-10.0-2.0","1528654278080","55-7","4455","","","","false","369.81","751.58","634.04","767.12","","[709,538],[287,627]","null"
"","teacher","26","325827","0.0-10.0-3.0","1528654278080","55-7","4112","","","","false","116.71","226.37","499.35","596.55","[165,540],[185,579]","","null"
"","teacher","27","335828","0.0-10.0-4.0","1528654278080","55-7","7166","","","","false","205.77","848.39","240.11","837.37","","[226,198],[137,412]","null"
"","check_point_button","28","339059","0.0-11.0","1528654278080","55-7","3230","","<p><font size='25'>¡FELICITACIONES! <br><br> TERMINASTE EL NIVEL 3</font></p>","0","","","","","","","",""
"","teacher","29","348499","0.0-12.0-0.0","1528654278080","55-7","5341","","","","false","588.27","685.47","491.39","619.94","[658,519],[613,604]","","null"
"","teacher","30","357787","0.0-12.0-1.0","1528654278080","55-7","7175","","","","false","650.93","748.13","324.8","551.9","","[663,289],[821,400]","null"
"","teacher","31","363331","0.0-12.0-2.0","1528654278080","55-7","3910","","","","false","198.83","653.88","114.25","660.43","[301,175],[587,580]","","null"
"","teacher","32","369979","0.0-12.0-3.0","1528654278080","55-7","4815","","","","false","196.65","496.58","319.54","840.73","[308,755]","[337,250]","null"
"","teacher","33","378227","0.0-12.0-4.0","1528654278080","55-7","6022","","","","false","534.9","710.01","609.46","706.66","","[544,535],[719,753]","null"
"","check_point_button","34","381830","0.0-13.0","1528654278080","55-7","3601","","<p><font size='25'>¡FELICITACIONES! <br><br> TERMINASTE EL NIVEL 4</font></p>","0","","","","","","","",""
"","teacher","35","388261","0.0-14.0-0.0","1528654278080","55-7","4415","","","","false","439.91","566.53","488.64","870.94","[462,517],[535,669]","","null"
"","teacher","36","395949","0.0-14.0-1.0","1528654278080","55-7","4495","","","","false","735.69","832.89","336.01","798.27","","[682,344],[875,630]","null"
"","teacher","37","404614","0.0-14.0-2.0","1528654278080","55-7","7143","","","","false","527.37","624.57","498.69","781.2","[592,705]","[473,502]","null"
"","teacher","38","410807","0.0-14.0-3.0","1528654278080","55-7","4551","","","","false","563.23","729.38","298.42","689.07","[612,449],[701,516]","","null"
"","teacher","39","417934","0.0-14.0-4.0","1528654278080","55-7","3350","","","","false","638.09","763.19","443.65","540.85","[689,478]","[699,624]","null"
"","check_point_button","40","420110","0.0-15.0","1528654278080","55-7","2174","","<p><font size='25'>¡FELICITACIONES! <br><br> TERMINASTE EL NIVEL 5</font></p>","0","","","","","","","",""
"","html-button-response","41","429934","0.0-16.0","1528654278080","55-7","9824","","<p align='center' style='font-size:25px;' > ¡ACORDATE DE QUE CON ESTAS PISTAS OTRO JUGADOR TENDRÁ QUE ADIVINAR EN DÓNDE ESTÁ LA CAJA! </p>","0","","","","","","","",""
"","teacher","42","437215","0.0-17.0-0.0","1528654278080","55-7","5790","","","","false","97.95","842.98","250.25","400.47","[479,306]","[489,487]","null"
"","teacher","43","442777","0.0-17.0-1.0","1528654278080","55-7","3966","","","","false","150.84","604.98","509.32","761.14","[543,551],[193,657]","","null"
"","teacher","44","447313","0.0-17.0-2.0","1528654278080","55-7","2983","","","","false","539.41","667.66","579.09","676.29","[615,632]","[608,542]","null"
"","teacher","45","452241","0.0-17.0-3.0","1528654278080","55-7","3382","","","","false","409.01","599.05","132.38","372.81","","[482,82],[508,439]","null"
"","teacher","46","458449","0.0-17.0-4.0","1528654278080","55-7","4646","","","","false","673.18","824.86","161.17","627.9","[785,206],[715,591]","","null"
"","check_point_button","47","461986","0.0-18.0","1528654278080","55-7","3536","","<p><font size='25'>¡FELICITACIONES! <br><br> TERMINASTE EL NIVEL 6</font></p>","0","","","","","","","",""
"","teacher","48","470001","0.0-19.0-0.0","1528654278080","55-7","3542","","","","false","294.16","482.14","154.8","531.43","[369,464]","[249,340]","null"
"","teacher","49","475297","0.0-19.0-1.0","1528654278080","55-7","3718","","","","false","347.04","537.32","744.29","841.49","","[426,708],[434,877]","null"
"","teacher","50","481162","0.0-19.0-2.0","1528654278080","55-7","4006","","","","false","229.52","763.85","134.8","735.14","[461,186],[430,657]","","null"
"","teacher","51","486570","0.0-19.0-3.0","1528654278080","55-7","3734","","","","false","415.4","512.6","289.02","692.46","","[543,292],[356,606]","null"
"","teacher","52","489858","0.0-19.0-4.0","1528654278080","55-7","2022","","","","false","270.44","748.31","614","711.2","[473,646]","[537,820]","null"
"","check_point_button","53","491994","0.0-20.0","1528654278080","55-7","2135","","<p><font size='25'>¡FELICITACIONES! <br><br> TERMINASTE EL NIVEL 7</font></p>","0","","","","","","","",""
"","teacher","54","497202","0.0-21.0-0.0","1528654278080","55-7","3302","","","","false","207.2","304.4","265.99","718.58","[262,431]","[263,227]","null"
"","teacher","55","503468","0.0-21.0-1.0","1528654278080","55-7","4149","","","","false","275.78","547.47","609.25","766.51","[500,646]","[244,790]","null"
"","teacher","56","509876","0.0-21.0-2.0","1528654278080","55-7","3382","","","","false","400.93","600.31","750.73","867.12","[531,780],[455,780]","","null"
"","teacher","57","515899","0.0-21.0-3.0","1528654278080","55-7","3813","","","","false","249.53","594.03","319.91","578.76","[401,347],[287,468]","","null"
"","teacher","58","521972","0.0-21.0-4.0","1528654278080","55-7","3935","","","","false","347.76","720.07","187.02","284.22","","[495,121],[484,325]","null"
"","check_point_button","59","524428","0.0-22.0","1528654278080","55-7","2455","","<p><font size='25'>¡FELICITACIONES! <br><br> TERMINASTE EL NIVEL 8</font></p>","0","","","","","","","",""
"","teacher","60","531324","0.0-23.0-0.0","1528654278080","55-7","4950","","","","false","751.89","849.09","299.87","478","[807,379]","[808,277]","null"
"","teacher","61","538852","0.0-23.0-1.0","1528654278080","55-7","5335","","","","false","118.53","589.47","688.75","838.98","[519,694]","[101,844]","null"
"","teacher","62","545691","0.0-23.0-2.0","1528654278080","55-7","4950","","","","false","98.84","748.79","719.84","817.04","[468,742],[376,752]","","null"
"","teacher","63","550924","0.0-23.0-3.0","1528654278080","55-7","3430","","","","false","210.02","362.12","425.22","522.42","","[281,384],[278,561]","null"
"","teacher","64","558547","0.0-23.0-4.0","1528654278080","55-7","5534","","","","false","639.37","758.3","231.72","464.69","[662,248],[749,248]","","null"
"","check_point_button","65","560644","0.0-24.0","1528654278080","55-7","2095","","<p><font size='25'>¡FELICITACIONES! <br><br> TERMINASTE EL NIVEL 9</font></p>","0","","","","","","","",""
"","teacher","66","568855","0.0-25.0-0.0","1528654278080","55-7","4776","","","","false","517.98","615.18","730.48","839.95","[573,789]","[480,698]","null"
"","teacher","67","576214","0.0-25.0-1.0","1528654278080","55-7","4839","","","","false","266.55","363.75","146.32","610.18","[318,363]","[312,84]","null"
"","teacher","68","582375","0.0-25.0-2.0","1528654278080","55-7","4223","","","","false","309.83","752.78","388.56","485.76","","[790,448],[292,452]","null"
"","teacher","69","591566","0.0-25.0-3.0","1528654278080","55-7","3895","","","","false","625.74","722.94","540.52","637.72","[676,560],[679,615]","","null"
"","teacher","70","597807","0.0-25.0-4.0","1528654278080","55-7","5056","","","","false","512.61","797.1","229.22","872.61","[569,367],[726,709]","","null"
"","check_point_button","71","607447","0.0-26.0","1528654278080","55-7","9640","","<p align='center' style='font-size:30px;' > COMPLETASTE TODOS LOS NIVELES  <br><br> ¡FELICITACIONES!<br><br> PRESIONA CUALQUIER TECLA PARA TERMINAR</p>","0","","","","","","","",""
