"success","trial_type","trial_index","time_elapsed","internal_node_id","start_time","Id","rt","responses","stimulus","button_pressed","Prueba","X_left","X_right","Y_top","Y_bottom","Circles","Crosses","key_press"
"true","fullscreen","0","2354","0.0-0.0","1528661458109","82-18","","","","","","","","","","","",""
"","survey-text","1","9291","0.0-1.0","1528661458109","82-18","6935","{""Q0"":""82-18""}","","","","","","","","","",""
"","my_image_button","2","30065","0.0-2.0-0.0","1528661458109","82-18","20772","","img/caja.png","0","","","","","","","",""
"","my_image_button","3","46001","0.0-2.0-1.0","1528661458109","82-18","15934","","img/caja_con_ejemplos.png","0","","","","","","","",""
"","my_image_button","4","47159","0.0-2.0-2.0","1528661458109","82-18","1158","","","0","","","","","","","",""
"","teacher","5","93659","0.0-3.0-0.0","1528661458109","82-18","23560","","","","true","500.16","597.36","351.17","675.31","","[366,365],[216,684]","null"
"","teacher","6","109378","0.0-3.0-1.0","1528661458109","82-18","12982","","","","true","193.46","667.02","688.54","853.99","","[197,623],[661,450]","null"
"","teacher","7","121939","0.0-3.0-2.0","1528661458109","82-18","10222","","","","true","478.45","812.56","728.64","825.84","","[482,661],[798,555]","null"
"","teacher","8","132789","0.0-3.0-3.0","1528661458109","82-18","8737","","","","true","396.17","860.04","756.87","854.07","","[402,713],[857,593]","null"
"","check_point_button","9","169493","0.0-4.0","1528661458109","82-18","36702","","<p><font size='25px'>ENTONCES, ¿QUÉ TENÉS QUE HACER? </font></p>","0","","","","","","","",""
"","html-button-response","10","170237","0.0-5.0","1528661458109","82-18","743","","<p align='center' style='font-size:25px;' > HAY 10 NIVELES <br> ¿ESTÁS LISTO/A PARA EMPEZAR? </p>","0","","","","","","","",""
"","teacher","11","187137","0.0-6.0-0.0","1528661458109","82-18","14174","","","","false","193.22","832.3","147.05","725.53","","[183,740],[835,143]","null"
"","teacher","12","202729","0.0-6.0-1.0","1528661458109","82-18","14382","","","","false","354.5","552.44","304.07","847.49","[357,307]","[552,849]","null"
"","teacher","13","212593","0.0-6.0-2.0","1528661458109","82-18","8606","","","","false","762.26","859.46","207.44","681.33","","[345,683],[533,203]","null"
"","teacher","14","219752","0.0-6.0-3.0","1528661458109","82-18","6135","","","","false","316.57","413.77","709.3","856.9","","[317,679],[419,490]","null"
"","teacher","15","225106","0.0-6.0-4.0","1528661458109","82-18","4271","","","","false","142.94","497.77","519.16","675.26","","[143,679],[502,521]","null"
"","check_point_button","16","226986","0.0-7.0","1528661458109","82-18","1879","","<p><font size='25'>¡FELICITACIONES! <br><br> TERMINASTE EL NIVEL 1</font></p>","0","","","","","","","",""
"","teacher","17","234401","0.0-8.0-0.0","1528661458109","82-18","6158","","","","false","359.58","739.44","423.15","520.35","","[360,521],[741,424]","null"
"","teacher","18","240298","0.0-8.0-1.0","1528661458109","82-18","4775","","","","false","674.68","771.88","197.78","851.85","","[675,854],[771,197]","null"
"","teacher","19","247324","0.0-8.0-2.0","1528661458109","82-18","5238","","","","false","295.91","761.37","600.82","698.02","","[299,699],[765,601]","null"
"","teacher","20","251660","0.0-8.0-3.0","1528661458109","82-18","3326","","","","false","394.24","491.44","490.47","729.09","[489,493]","[397,732]","null"
"","teacher","21","257732","0.0-8.0-4.0","1528661458109","82-18","4831","","","","false","143.03","504.88","250.95","798.98","[503,254]","[145,799]","null"
"","check_point_button","22","259340","0.0-9.0","1528661458109","82-18","1607","","<p><font size='25'>¡FELICITACIONES! <br><br> TERMINASTE EL NIVEL 2</font></p>","0","","","","","","","",""
"","teacher","23","264836","0.0-10.0-0.0","1528661458109","82-18","4207","","","","false","192.18","428.63","144.62","537.88","[193,537]","[426,143]","null"
"","teacher","24","269301","0.0-10.0-1.0","1528661458109","82-18","3430","","","","false","173.68","270.88","467.11","672.6","","[175,674],[271,469]","null"
"","teacher","25","273836","0.0-10.0-2.0","1528661458109","82-18","3598","","","","false","323.66","799.88","541.16","730.28","[798,544]","[327,734]","null"
"","teacher","26","277997","0.0-10.0-3.0","1528661458109","82-18","3215","","","","false","491.75","656.73","428.16","718.54","[495,718]","[654,428]","null"
"","teacher","27","282465","0.0-10.0-4.0","1528661458109","82-18","3334","","","","false","381.51","562.06","378.99","476.19","","[387,477],[564,380]","null"
"","check_point_button","28","284924","0.0-11.0","1528661458109","82-18","2457","","<p><font size='25'>¡FELICITACIONES! <br><br> TERMINASTE EL NIVEL 3</font></p>","0","","","","","","","",""
"","teacher","29","289596","0.0-12.0-0.0","1528661458109","82-18","3798","","","","false","476.53","573.73","619.88","717.08","","[478,718],[577,622]","null"
"","teacher","30","295676","0.0-12.0-1.0","1528661458109","82-18","5143","","","","false","404.24","595.42","373.45","668.93","[405,668],[594,374]","","null"
"","teacher","31","300389","0.0-12.0-2.0","1528661458109","82-18","3415","","","","false","373.64","756.82","325.33","649.12","","[371,653],[759,328]","null"
"","teacher","32","305701","0.0-12.0-3.0","1528661458109","82-18","4471","","","","false","417.11","679.77","760.52","857.72","","[421,859],[682,760]","null"
"","teacher","33","316167","0.0-12.0-4.0","1528661458109","82-18","9137","","","","false","748.44","867.4","327.84","450.26","","[563,451],[689,326]","null"
"","check_point_button","34","318551","0.0-13.0","1528661458109","82-18","2383","","<p><font size='25'>¡FELICITACIONES! <br><br> TERMINASTE EL NIVEL 4</font></p>","0","","","","","","","",""
"","teacher","35","326327","0.0-14.0-0.0","1528661458109","82-18","6406","","","","false","612.14","841.21","331.22","658.91","[841,332]","[611,662]","null"
"","teacher","36","331359","0.0-14.0-1.0","1528661458109","82-18","4023","","","","false","319.04","773.78","285.54","860.03","","[319,863],[774,289]","null"
"","teacher","37","335159","0.0-14.0-2.0","1528661458109","82-18","2846","","","","false","731.25","841.65","739.86","857.38","","[572,853],[688,746]","null"
"","teacher","38","339207","0.0-14.0-3.0","1528661458109","82-18","3375","","","","false","127.87","519.6","618.52","770.12","","[127,917],[517,789]","null"
"","teacher","39","342919","0.0-14.0-4.0","1528661458109","82-18","2774","","","","false","217.16","314.36","291.4","838.19","","[349,844],[441,282]","null"
"","check_point_button","40","344383","0.0-15.0","1528661458109","82-18","1464","","<p><font size='25'>¡FELICITACIONES! <br><br> TERMINASTE EL NIVEL 5</font></p>","0","","","","","","","",""
"","html-button-response","41","346567","0.0-16.0","1528661458109","82-18","2184","","<p align='center' style='font-size:25px;' > ¡ACORDATE DE QUE CON ESTAS PISTAS OTRO JUGADOR TENDRÁ QUE ADIVINAR EN DÓNDE ESTÁ LA CAJA! </p>","0","","","","","","","",""
"","teacher","42","351743","0.0-17.0-0.0","1528661458109","82-18","4246","","","","false","764.48","861.68","573.68","774.64","","[764,778],[864,575]","null"
"","teacher","43","356078","0.0-17.0-1.0","1528661458109","82-18","3247","","","","false","468.77","565.97","414.55","831.33","[564,416]","[468,835]","null"
"","teacher","44","359846","0.0-17.0-2.0","1528661458109","82-18","2895","","","","false","600.26","815.35","621.87","870.94","","[602,873],[818,622]","null"
"","teacher","45","364303","0.0-17.0-3.0","1528661458109","82-18","3270","","","","false","404.17","729.73","365.96","463.16","[729,369]","[404,466]","null"
"","teacher","46","368967","0.0-17.0-4.0","1528661458109","82-18","3559","","","","false","207.65","656.49","571.93","871.14","[654,573]","[209,874]","null"
"","check_point_button","47","370758","0.0-18.0","1528661458109","82-18","1791","","<p><font size='25'>¡FELICITACIONES! <br><br> TERMINASTE EL NIVEL 6</font></p>","0","","","","","","","",""
"","teacher","48","376722","0.0-19.0-0.0","1528661458109","82-18","4081","","","","false","738.05","835.25","214.65","361.66","","[593,369],[721,216]","null"
"","teacher","49","380962","0.0-19.0-1.0","1528661458109","82-18","3375","","","","false","738.71","841.41","190.13","665.62","[841,193]","[740,666]","null"
"","teacher","50","385290","0.0-19.0-2.0","1528661458109","82-18","3118","","","","false","215.98","674.07","114.28","278.08","","[218,279],[675,112]","null"
"","teacher","51","389002","0.0-19.0-3.0","1528661458109","82-18","2798","","","","false","421.63","535.64","203.57","654.94","","[422,657],[536,206]","null"
"","teacher","52","393714","0.0-19.0-4.0","1528661458109","82-18","3902","","","","false","538.96","679.25","224.36","777.69","[679,226]","[540,781]","null"
"","check_point_button","53","395290","0.0-20.0","1528661458109","82-18","1576","","<p><font size='25'>¡FELICITACIONES! <br><br> TERMINASTE EL NIVEL 7</font></p>","0","","","","","","","",""
"","teacher","54","399057","0.0-21.0-0.0","1528661458109","82-18","2919","","","","false","581.79","858.26","668.6","765.8","","[583,768],[862,672]","null"
"","teacher","55","403442","0.0-21.0-1.0","1528661458109","82-18","3239","","","","false","621.5","770.84","100.73","533.72","","[622,538],[772,104]","null"
"","teacher","56","406594","0.0-21.0-2.0","1528661458109","82-18","2366","","","","false","459.12","556.32","747.21","844.41","","[460,846],[554,747]","null"
"","teacher","57","409626","0.0-21.0-3.0","1528661458109","82-18","2247","","","","false","691","788.2","671.94","803.42","","[696,804],[790,675]","null"
"","teacher","58","412786","0.0-21.0-4.0","1528661458109","82-18","2534","","","","false","469.8","567","768.06","865.26","","[470,868],[570,769]","null"
"","check_point_button","59","414194","0.0-22.0","1528661458109","82-18","1408","","<p><font size='25'>¡FELICITACIONES! <br><br> TERMINASTE EL NIVEL 8</font></p>","0","","","","","","","",""
"","teacher","60","421218","0.0-23.0-0.0","1528661458109","82-18","4839","","","","false","294.33","699.72","288.71","497.76","","[297,499],[701,291]","null"
"","teacher","61","425386","0.0-23.0-1.0","1528661458109","82-18","3358","","","","false","320.14","739.36","412.32","698.57","","[321,701],[741,416]","null"
"","teacher","62","429130","0.0-23.0-2.0","1528661458109","82-18","2863","","","","false","555.64","725.08","421.21","518.41","","[559,521],[729,420]","null"
"","teacher","63","434013","0.0-23.0-3.0","1528661458109","82-18","3336","","","","false","684.6","816.49","250.87","410.48","[686,409]","[820,251]","null"
"","teacher","64","438629","0.0-23.0-4.0","1528661458109","82-18","3733","","","","false","666.35","770.86","471.87","569.07","","[668,571],[771,475]","null"
"","check_point_button","65","439621","0.0-24.0","1528661458109","82-18","991","","<p><font size='25'>¡FELICITACIONES! <br><br> TERMINASTE EL NIVEL 9</font></p>","0","","","","","","","",""
"","teacher","66","444277","0.0-25.0-0.0","1528661458109","82-18","3166","","","","false","167.35","332.29","758.08","855.28","[332,760]","[167,857]","null"
"","teacher","67","448565","0.0-25.0-1.0","1528661458109","82-18","3415","","","","false","227.19","578.52","547.74","828.38","[229,828],[578,549]","","null"
"","teacher","68","452429","0.0-25.0-2.0","1528661458109","82-18","2775","","","","false","443.78","812.46","328.47","709.27","","[442,714],[814,327]","null"
"","teacher","69","456021","0.0-25.0-3.0","1528661458109","82-18","2718","","","","false","181.58","813.88","644.58","831.11","","[183,835],[814,648]","null"
"","teacher","70","460325","0.0-25.0-4.0","1528661458109","82-18","3367","","","","false","461.56","723.79","372.06","520.2","","[461,522],[725,374]","null"
"","check_point_button","71","462302","0.0-26.0","1528661458109","82-18","1975","","<p align='center' style='font-size:30px;' > COMPLETASTE TODOS LOS NIVELES  <br><br> ¡FELICITACIONES!<br><br> PRESIONA CUALQUIER TECLA PARA TERMINAR</p>","0","","","","","","","",""
