"success","trial_type","trial_index","time_elapsed","internal_node_id","start_time","Id","rt","responses","stimulus","button_pressed","Prueba","X_left","X_right","Y_top","Y_bottom","Circles","Crosses","key_press"
"true","fullscreen","0","1812","0.0-0.0","1532720662029","10-285","","","","","","","","","","","",""
"","survey-text","1","6224","0.0-1.0","1532720662029","10-285","4410","{""Q0"":""10-285""}","","","","","","","","","",""
"","my_image_button","2","20024","0.0-2.0-0.0","1532720662029","10-285","13798","","img/caja.png","0","","","","","","","",""
"","my_image_button","3","35015","0.0-2.0-1.0","1532720662029","10-285","14990","","img/caja_con_ejemplos.png","0","","","","","","","",""
"","my_image_button","4","40568","0.0-2.0-2.0","1532720662029","10-285","5552","","","0","","","","","","","",""
"","teacher","5","64834","0.0-3.0-0.0","1532720662029","10-285","13781","","","","true","722.5","819.7","624.56","787.14","[787,646],[769,712]","","null"
"","teacher","6","83162","0.0-3.0-1.0","1532720662029","10-285","9775","","","","true","147.42","645.13","561","747.34","[162,651]","[781,594]","null"
"","teacher","7","98491","0.0-3.0-2.0","1532720662029","10-285","8847","","","","true","425.98","753.01","395.25","842.99","[596,740]","[578,314]","null"
"","teacher","8","109482","0.0-3.0-3.0","1532720662029","10-285","5070","","","","true","718.75","815.95","449.22","546.42","[765,513]","[764,434]","null"
"","check_point_button","9","138726","0.0-4.0","1532720662029","10-285","29241","","<p><font size='25px'>ENTONCES, ¿QUÉ TENÉS QUE HACER? </font></p>","0","","","","","","","",""
"","html-button-response","10","149974","0.0-5.0","1532720662029","10-285","11248","","<p align='center' style='font-size:25px;' > HAY 10 NIVELES <br> ¿ESTÁS LISTO/A PARA EMPEZAR? </p>","0","","","","","","","",""
"","teacher","11","162510","0.0-6.0-0.0","1532720662029","10-285","4871","","","","false","366.09","527.68","628.26","853.93","[450,645],[450,849]","","null"
"","teacher","12","170110","0.0-6.0-1.0","1532720662029","10-285","4782","","","","false","732.95","842.93","120.47","217.67","[781,124],[792,212]","","null"
"","teacher","13","183454","0.0-6.0-2.0","1532720662029","10-285","7487","","","","false","747.28","844.48","131.2","636.07","[802,623]","[791,128]","null"
"","teacher","14","199456","0.0-6.0-3.0","1532720662029","10-285","7216","","","","false","323.56","688.81","766.72","863.92","[672,818],[334,818]","","null"
"","teacher","15","210000","0.0-6.0-4.0","1532720662029","10-285","7959","","","","false","565.46","662.66","149.62","719.71","","[609,99],[606,742]","null"
"","check_point_button","16","213290","0.0-7.0","1532720662029","10-285","3288","","<p><font size='25'>¡FELICITACIONES! <br><br> TERMINASTE EL NIVEL 1</font></p>","0","","","","","","","",""
"","teacher","17","218529","0.0-8.0-0.0","1532720662029","10-285","3475","","","","false","362.21","459.41","648.82","746.02","[425,650]","[405,752]","null"
"","teacher","18","224697","0.0-8.0-1.0","1532720662029","10-285","3663","","","","false","605","702.2","376.31","664.8","[645,401],[657,663]","","null"
"","teacher","19","231233","0.0-8.0-2.0","1532720662029","10-285","4879","","","","false","697.33","822.08","693.74","790.94","","[594,738],[886,747]","null"
"","teacher","20","239481","0.0-8.0-3.0","1532720662029","10-285","5559","","","","false","594.46","747.28","266.09","363.29","","[787,308],[577,317]","null"
"","teacher","21","245177","0.0-8.0-4.0","1532720662029","10-285","4143","","","","false","577.98","787.02","495.48","678.46","[680,511],[691,669]","","null"
"","check_point_button","22","248625","0.0-9.0","1532720662029","10-285","3447","","<p><font size='25'>¡FELICITACIONES! <br><br> TERMINASTE EL NIVEL 2</font></p>","0","","","","","","","",""
"","teacher","23","254674","0.0-10.0-0.0","1532720662029","10-285","4391","","","","false","550.85","809.25","563.88","708.59","[572,620]","[845,626]","null"
"","teacher","24","259066","0.0-10.0-1.0","1532720662029","10-285","3119","","","","false","309.55","426.88","710.86","808.06","[373,799]","[372,690]","null"
"","teacher","25","265052","0.0-10.0-2.0","1532720662029","10-285","3873","","","","false","102.14","349.23","258.86","787.3","[231,776]","[226,224]","null"
"","teacher","26","274324","0.0-10.0-3.0","1532720662029","10-285","4583","","","","false","649.12","746.32","329.59","767.1","[702,753]","[695,298]","null"
"","teacher","27","278483","0.0-10.0-4.0","1532720662029","10-285","3118","","","","false","251.9","776.18","761.05","858.25","[253,802]","[809,812]","null"
"","check_point_button","28","280892","0.0-11.0","1532720662029","10-285","2409","","<p><font size='25'>¡FELICITACIONES! <br><br> TERMINASTE EL NIVEL 3</font></p>","0","","","","","","","",""
"","teacher","29","287605","0.0-12.0-0.0","1532720662029","10-285","4719","","","","false","379.07","704.58","271.77","676.15","[533,661]","[560,247]","null"
"","teacher","30","295292","0.0-12.0-1.0","1532720662029","10-285","5677","","","","false","345.22","776.69","138.05","329.94","","[318,235],[616,124]","null"
"","teacher","31","300637","0.0-12.0-2.0","1532720662029","10-285","4262","","","","false","417.06","621.27","751.21","848.41","[427,794]","[650,788]","null"
"","teacher","32","304773","0.0-12.0-3.0","1532720662029","10-285","2687","","","","false","231.65","366.69","733.3","830.5","","[384,786],[209,787]","null"
"","teacher","33","313652","0.0-12.0-4.0","1532720662029","10-285","4869","","","","false","510.17","628.32","201.24","632.18","[566,619]","[561,182]","null"
"","check_point_button","34","317227","0.0-13.0","1532720662029","10-285","3574","","<p><font size='25'>¡FELICITACIONES! <br><br> TERMINASTE EL NIVEL 4</font></p>","0","","","","","","","",""
"","teacher","35","323062","0.0-14.0-0.0","1532720662029","10-285","4130","","","","false","567.43","857.49","265.51","421.01","[851,345]","[550,336]","null"
"","teacher","36","328183","0.0-14.0-1.0","1532720662029","10-285","3519","","","","false","146.57","511.92","191.14","671.16","","[330,677],[327,172]","null"
"","teacher","37","336071","0.0-14.0-2.0","1532720662029","10-285","3687","","","","false","661.07","854.13","116.58","703.57","[767,666]","[779,86]","null"
"","teacher","38","340406","0.0-14.0-3.0","1532720662029","10-285","2670","","","","false","669.73","778.39","645.73","788.3","[729,781]","[722,636]","null"
"","teacher","39","344959","0.0-14.0-4.0","1532720662029","10-285","2975","","","","false","415.29","512.49","215.02","569.7","[462,536]","[462,187]","null"
"","check_point_button","40","347182","0.0-15.0","1532720662029","10-285","2223","","<p><font size='25'>¡FELICITACIONES! <br><br> TERMINASTE EL NIVEL 5</font></p>","0","","","","","","","",""
"","html-button-response","41","350303","0.0-16.0","1532720662029","10-285","3120","","<p align='center' style='font-size:25px;' > ¡ACORDATE DE QUE CON ESTAS PISTAS OTRO JUGADOR TENDRÁ QUE ADIVINAR EN DÓNDE ESTÁ LA CAJA! </p>","0","","","","","","","",""
"","teacher","42","355439","0.0-17.0-0.0","1532720662029","10-285","3654","","","","false","290.96","388.16","238.55","383.24","[345,369]","[337,225]","null"
"","teacher","43","362935","0.0-17.0-1.0","1532720662029","10-285","5727","","","","false","193.53","785.02","382.99","480.19","","[191,440],[962,437]","null"
"","teacher","44","369375","0.0-17.0-2.0","1532720662029","10-285","4888","","","","false","265.93","648.98","109.93","696.75","[459,633]","[484,93]","null"
"","teacher","45","374190","0.0-17.0-3.0","1532720662029","10-285","2735","","","","false","538.91","636.11","163.01","761.21","","[596,767],[593,156]","null"
"","teacher","46","379582","0.0-17.0-4.0","1532720662029","10-285","3766","","","","false","446.3","556.89","326.45","619.28","[521,345],[492,580]","","null"
"","check_point_button","47","381976","0.0-18.0","1532720662029","10-285","2393","","<p><font size='25'>¡FELICITACIONES! <br><br> TERMINASTE EL NIVEL 6</font></p>","0","","","","","","","",""
"","teacher","48","387105","0.0-19.0-0.0","1532720662029","10-285","3783","","","","false","739.95","837.15","472.29","569.49","[788,544]","[791,468]","null"
"","teacher","49","391537","0.0-19.0-1.0","1532720662029","10-285","3030","","","","false","297.34","565.07","392.53","613.49","[300,480]","[588,482]","null"
"","teacher","50","395256","0.0-19.0-2.0","1532720662029","10-285","2414","","","","false","416.41","672.34","224.13","444.32","","[687,339],[414,338]","null"
"","teacher","51","399288","0.0-19.0-3.0","1532720662029","10-285","2558","","","","false","121.66","450.54","525.3","814.87","","[456,682],[107,673]","null"
"","teacher","52","403137","0.0-19.0-4.0","1532720662029","10-285","2728","","","","false","459.35","556.55","539.56","636.76","","[508,516],[529,666]","null"
"","check_point_button","53","405065","0.0-20.0","1532720662029","10-285","1927","","<p><font size='25'>¡FELICITACIONES! <br><br> TERMINASTE EL NIVEL 7</font></p>","0","","","","","","","",""
"","teacher","54","409729","0.0-21.0-0.0","1532720662029","10-285","3318","","","","false","127.03","314.14","401.98","499.18","[303,457],[153,457]","","null"
"","teacher","55","412640","0.0-21.0-1.0","1532720662029","10-285","1734","","","","false","471.59","568.79","511.39","867.18","[529,690],[523,816]","","null"
"","teacher","56","420202","0.0-21.0-2.0","1532720662029","10-285","3335","","","","false","234.4","768.92","408.1","534.45","[263,482]","[774,479]","null"
"","teacher","57","426241","0.0-21.0-3.0","1532720662029","10-285","2983","","","","false","557.03","751.4","227.36","324.56","[561,282],[745,297]","","null"
"","teacher","58","431521","0.0-21.0-4.0","1532720662029","10-285","2239","","","","false","607.49","704.69","430.49","559.28","[670,444]","[659,576]","null"
"","check_point_button","59","434153","0.0-22.0","1532720662029","10-285","2631","","<p><font size='25'>¡FELICITACIONES! <br><br> TERMINASTE EL NIVEL 8</font></p>","0","","","","","","","",""
"","teacher","60","443596","0.0-23.0-0.0","1532720662029","10-285","2399","","","","false","765.73","862.93","653.64","750.84","[781,670],[828,745]","","null"
"","teacher","61","447805","0.0-23.0-1.0","1532720662029","10-285","2935","","","","false","471.51","775.44","253.06","427.92","","[655,224],[605,467]","null"
"","teacher","62","452652","0.0-23.0-2.0","1532720662029","10-285","3423","","","","false","465.97","802.21","482.71","728.42","","[437,638],[867,595]","null"
"","teacher","63","456180","0.0-23.0-3.0","1532720662029","10-285","2511","","","","false","286.22","715.39","662.81","760.01","[350,694],[667,738]","","null"
"","teacher","64","459812","0.0-23.0-4.0","1532720662029","10-285","2215","","","","false","704.13","801.33","99.72","426.01","[758,347],[734,111]","","null"
"","check_point_button","65","462068","0.0-24.0","1532720662029","10-285","2255","","<p><font size='25'>¡FELICITACIONES! <br><br> TERMINASTE EL NIVEL 9</font></p>","0","","","","","","","",""
"","teacher","66","466605","0.0-25.0-0.0","1532720662029","10-285","2927","","","","false","311.99","845.04","612.2","749.09","","[298,711],[896,678]","null"
"","teacher","67","472068","0.0-25.0-1.0","1532720662029","10-285","3343","","","","false","482.67","764.38","354.97","452.17","[760,414]","[479,393]","null"
"","teacher","68","479525","0.0-25.0-2.0","1532720662029","10-285","3207","","","","false","189.2","524.81","510.07","607.27","[512,551],[233,562]","","null"
"","teacher","69","484829","0.0-25.0-3.0","1532720662029","10-285","3815","","","","false","519","681.68","389.16","512.87","[665,477]","[499,452]","null"
"","teacher","70","489965","0.0-25.0-4.0","1532720662029","10-285","3711","","","","false","308.78","560.69","619.01","754.17","[558,698]","[307,692]","null"
"","check_point_button","71","529713","0.0-26.0","1532720662029","10-285","39748","","<p align='center' style='font-size:30px;' > COMPLETASTE TODOS LOS NIVELES  <br><br> ¡FELICITACIONES!<br><br> PRESIONA CUALQUIER TECLA PARA TERMINAR</p>","0","","","","","","","",""
