"success","trial_type","trial_index","time_elapsed","internal_node_id","start_time","Id","rt","responses","stimulus","button_pressed","Prueba","X_left","X_right","Y_top","Y_bottom","Circles","Crosses","key_press"
"true","fullscreen","0","12110","0.0-0.0","1532720549214","10-286","","","","","","","","","","","",""
"","survey-text","1","17820","0.0-1.0","1532720549214","10-286","5706","{""Q0"":""10-286""}","","","","","","","","","",""
"","my_image_button","2","32589","0.0-2.0-0.0","1532720549214","10-286","14767","","img/caja.png","0","","","","","","","",""
"","my_image_button","3","51613","0.0-2.0-1.0","1532720549214","10-286","19022","","img/caja_con_ejemplos.png","0","","","","","","","",""
"","my_image_button","4","58212","0.0-2.0-2.0","1532720549214","10-286","6599","","","0","","","","","","","",""
"","teacher","5","77943","0.0-3.0-0.0","1532720549214","10-286","10088","","","","true","109.19","823.17","409.51","542.13","[819,415]","[859,432]","null"
"","teacher","6","84399","0.0-3.0-1.0","1532720549214","10-286","4599","","","","true","493.34","836.67","456.01","562.84","[497,464]","[450,438]","null"
"","teacher","7","95311","0.0-3.0-2.0","1532720549214","10-286","6573","","","","true","498.84","763.88","343.16","847.72","[504,842]","[410,304]","null"
"","teacher","8","102591","0.0-3.0-3.0","1532720549214","10-286","5198","","","","true","500.62","597.82","611.76","768.41","[520,656]","[453,644]","null"
"","check_point_button","9","135435","0.0-4.0","1532720549214","10-286","32842","","<p><font size='25px'>ENTONCES, ¿QUÉ TENÉS QUE HACER? </font></p>","0","","","","","","","",""
"","html-button-response","10","152731","0.0-5.0","1532720549214","10-286","17295","","<p align='center' style='font-size:25px;' > HAY 10 NIVELES <br> ¿ESTÁS LISTO/A PARA EMPEZAR? </p>","0","","","","","","","",""
"","teacher","11","159835","0.0-6.0-0.0","1532720549214","10-286","5999","","","","false","103.52","353.57","461.2","740.93","[225,527]","[368,488]","null"
"","teacher","12","164811","0.0-6.0-1.0","1532720549214","10-286","3846","","","","false","638.43","735.63","431.62","528.82","[647,526]","[618,474]","null"
"","teacher","13","169027","0.0-6.0-2.0","1532720549214","10-286","2751","","","","false","434.41","686.62","253.98","651.96","[441,650]","[402,692]","null"
"","teacher","14","172748","0.0-6.0-3.0","1532720549214","10-286","2318","","","","false","740.41","837.61","639.51","802.42","[753,663]","[654,646]","null"
"","teacher","15","176107","0.0-6.0-4.0","1532720549214","10-286","2270","","","","false","656.44","753.64","668.46","831.08","[664,685]","[625,660]","null"
"","check_point_button","16","187060","0.0-7.0","1532720549214","10-286","10951","","<p><font size='25'>¡FELICITACIONES! <br><br> TERMINASTE EL NIVEL 1</font></p>","0","","","","","","","",""
"","teacher","17","190716","0.0-8.0-0.0","1532720549214","10-286","2182","","","","false","574.57","811.89","342.99","619.06","[584,360]","[552,360]","null"
"","teacher","18","193635","0.0-8.0-1.0","1532720549214","10-286","1910","","","","false","503.08","652.41","757.57","854.77","[642,849]","[618,745]","null"
"","teacher","19","196158","0.0-8.0-2.0","1532720549214","10-286","1543","","","","false","571.27","668.47","696.71","793.91","[584,792]","[564,776]","null"
"","teacher","20","198679","0.0-8.0-3.0","1532720549214","10-286","1701","","","","false","602.12","791.48","276.49","743.29","[618,742]","[811,263]","null"
"","teacher","21","202998","0.0-8.0-4.0","1532720549214","10-286","2526","","","","false","312.27","409.47","625.11","722.31","[405,642]","[301,735]","null"
"","check_point_button","22","205142","0.0-9.0","1532720549214","10-286","2142","","<p><font size='25'>¡FELICITACIONES! <br><br> TERMINASTE EL NIVEL 2</font></p>","0","","","","","","","",""
"","teacher","23","208590","0.0-10.0-0.0","1532720549214","10-286","2542","","","","false","734.75","863.18","775.22","872.42","[737,785]","[885,898]","null"
"","teacher","24","211422","0.0-10.0-1.0","1532720549214","10-286","1993","","","","false","670.27","804.88","757.76","854.96","[802,769]","[658,880]","null"
"","teacher","25","215951","0.0-10.0-2.0","1532720549214","10-286","3214","","","","false","735.59","832.79","353.92","848.77","[748,839]","[844,340]","null"
"","teacher","26","221302","0.0-10.0-3.0","1532720549214","10-286","2589","","","","false","648.86","848.64","499.6","704.76","","[626,730],[860,496]","null"
"","teacher","27","225932","0.0-10.0-4.0","1532720549214","10-286","3150","","","","false","117.09","562.65","158.1","562.92","[552,555],[472,228]","","null"
"","check_point_button","28","228535","0.0-11.0","1532720549214","10-286","2602","","<p><font size='25'>¡FELICITACIONES! <br><br> TERMINASTE EL NIVEL 3</font></p>","0","","","","","","","",""
"","teacher","29","232791","0.0-12.0-0.0","1532720549214","10-286","3030","","","","false","573.74","810.92","439.68","536.88","[629,508],[778,476]","","null"
"","teacher","30","234631","0.0-12.0-1.0","1532720549214","10-286","1118","","","","false","540.19","637.39","479.27","758.8","[605,616],[602,532]","","null"
"","teacher","31","237430","0.0-12.0-2.0","1532720549214","10-286","1878","","","","false","327.57","819.42","410.77","782.38","[383,501]","[805,791]","null"
"","teacher","32","241135","0.0-12.0-3.0","1532720549214","10-286","2575","","","","false","648.5","745.7","320.71","442.23","","[628,468],[685,287]","null"
"","teacher","33","243743","0.0-12.0-4.0","1532720549214","10-286","1919","","","","false","424.65","695.51","382.14","644.41","[607,616]","[598,696]","null"
"","check_point_button","34","245519","0.0-13.0","1532720549214","10-286","1776","","<p><font size='25'>¡FELICITACIONES! <br><br> TERMINASTE EL NIVEL 4</font></p>","0","","","","","","","",""
"","teacher","35","248767","0.0-14.0-0.0","1532720549214","10-286","1806","","","","false","642.71","751.85","130.21","306.11","[643,295]","[600,335]","null"
"","teacher","36","252015","0.0-14.0-1.0","1532720549214","10-286","2269","","","","false","609.47","706.67","157.37","435.4","[648,238],[691,429]","","null"
"","teacher","37","255703","0.0-14.0-2.0","1532720549214","10-286","2838","","","","false","137.75","339.59","454.38","828.27","[331,471],[168,809]","","null"
"","teacher","38","259466","0.0-14.0-3.0","1532720549214","10-286","2753","","","","false","511.85","869.38","776.96","874.16","[522,799]","[862,764]","null"
"","teacher","39","264259","0.0-14.0-4.0","1532720549214","10-286","3854","","","","false","110.41","207.61","376.83","516.48","[189,507]","[104,354]","null"
"","check_point_button","40","266090","0.0-15.0","1532720549214","10-286","1831","","<p><font size='25'>¡FELICITACIONES! <br><br> TERMINASTE EL NIVEL 5</font></p>","0","","","","","","","",""
"","html-button-response","41","277259","0.0-16.0","1532720549214","10-286","11168","","<p align='center' style='font-size:25px;' > ¡ACORDATE DE QUE CON ESTAS PISTAS OTRO JUGADOR TENDRÁ QUE ADIVINAR EN DÓNDE ESTÁ LA CAJA! </p>","0","","","","","","","",""
"","teacher","42","281107","0.0-17.0-0.0","1532720549214","10-286","2830","","","","false","570.72","782.64","360.24","457.44","[590,451]","[562,364]","null"
"","teacher","43","285035","0.0-17.0-1.0","1532720549214","10-286","3143","","","","false","259.75","746.58","681","778.2","[742,708],[276,770]","","null"
"","teacher","44","289803","0.0-17.0-2.0","1532720549214","10-286","3575","","","","false","352.95","453.6","674.91","772.11","[450,683],[364,682]","","null"
"","teacher","45","294179","0.0-17.0-3.0","1532720549214","10-286","3127","","","","false","487.16","598.55","475.93","573.13","[497,569],[587,489]","","null"
"","teacher","46","299811","0.0-17.0-4.0","1532720549214","10-286","3943","","","","false","733.99","831.19","567.29","664.49","","[733,561],[838,669]","null"
"","check_point_button","47","302571","0.0-18.0","1532720549214","10-286","2760","","<p><font size='25'>¡FELICITACIONES! <br><br> TERMINASTE EL NIVEL 6</font></p>","0","","","","","","","",""
"","teacher","48","306659","0.0-19.0-0.0","1532720549214","10-286","3271","","","","false","336.07","691.21","452.7","867.5","[361,850]","[725,418]","null"
"","teacher","49","311227","0.0-19.0-1.0","1532720549214","10-286","3134","","","","false","672.74","802.8","201.13","827.36","[686,819],[688,223]","","null"
"","teacher","50","314787","0.0-19.0-2.0","1532720549214","10-286","2438","","","","false","682.49","810.35","718.59","815.79","[700,805]","[691,710]","null"
"","teacher","51","318318","0.0-19.0-3.0","1532720549214","10-286","2751","","","","false","333.82","618.19","730.36","864.41","","[641,724],[324,866]","null"
"","teacher","52","322542","0.0-19.0-4.0","1532720549214","10-286","3479","","","","false","216.91","538.43","547.91","645.11","[229,562],[524,632]","","null"
"","check_point_button","53","324430","0.0-20.0","1532720549214","10-286","1886","","<p><font size='25'>¡FELICITACIONES! <br><br> TERMINASTE EL NIVEL 7</font></p>","0","","","","","","","",""
"","teacher","54","327510","0.0-21.0-0.0","1532720549214","10-286","2221","","","","false","139.8","536.16","752.64","849.84","","[551,738],[108,857]","null"
"","teacher","55","334182","0.0-21.0-1.0","1532720549214","10-286","5591","","","","false","154.94","486.98","455.59","552.79","[475,469],[168,539]","","null"
"","teacher","56","337078","0.0-21.0-2.0","1532720549214","10-286","1853","","","","false","290","834.06","159","256.2","[547,207]","[663,377]","null"
"","teacher","57","340677","0.0-21.0-3.0","1532720549214","10-286","2318","","","","false","535.37","780.14","616.2","713.4","","[508,651],[779,607]","null"
"","teacher","58","343678","0.0-21.0-4.0","1532720549214","10-286","2279","","","","false","249.42","828.81","459.35","556.55","","[235,567],[852,435]","null"
"","check_point_button","59","344997","0.0-22.0","1532720549214","10-286","1319","","<p><font size='25'>¡FELICITACIONES! <br><br> TERMINASTE EL NIVEL 8</font></p>","0","","","","","","","",""
"","teacher","60","347821","0.0-23.0-0.0","1532720549214","10-286","1901","","","","false","585.86","710.34","632.31","729.51","","[534,664],[730,745]","null"
"","teacher","61","351133","0.0-23.0-1.0","1532720549214","10-286","2167","","","","false","744.95","842.15","448.29","746.56","[755,745],[839,467]","","null"
"","teacher","62","355150","0.0-23.0-2.0","1532720549214","10-286","2838","","","","false","542.23","829.6","644.24","792.74","","[530,795],[849,644]","null"
"","teacher","63","357557","0.0-23.0-3.0","1532720549214","10-286","1398","","","","false","266.99","699.27","440.99","574.51","[657,552]","[712,585]","null"
"","teacher","64","360086","0.0-23.0-4.0","1532720549214","10-286","1727","","","","false","415.74","512.94","377.45","771.53","[436,729],[505,428]","","null"
"","check_point_button","65","361222","0.0-24.0","1532720549214","10-286","1135","","<p><font size='25'>¡FELICITACIONES! <br><br> TERMINASTE EL NIVEL 9</font></p>","0","","","","","","","",""
"","teacher","66","364765","0.0-25.0-0.0","1532720549214","10-286","2735","","","","false","222.49","686.4","711.57","858.57","[650,836],[255,734]","","null"
"","teacher","67","367509","0.0-25.0-1.0","1532720549214","10-286","1759","","","","false","692.91","812.43","566.13","663.33","","[682,694],[836,565]","null"
"","teacher","68","369766","0.0-25.0-2.0","1532720549214","10-286","1462","","","","false","308.54","405.74","641.79","834.84","[347,707]","[412,669]","null"
"","teacher","69","372206","0.0-25.0-3.0","1532720549214","10-286","1550","","","","false","663.54","866.86","525.13","635.54","[787,589]","[630,684]","null"
"","teacher","70","374758","0.0-25.0-4.0","1532720549214","10-286","1607","","","","false","663.29","804.06","106.96","731.53","[745,341]","[621,790]","null"
"","check_point_button","71","384152","0.0-26.0","1532720549214","10-286","9394","","<p align='center' style='font-size:30px;' > COMPLETASTE TODOS LOS NIVELES  <br><br> ¡FELICITACIONES!<br><br> PRESIONA CUALQUIER TECLA PARA TERMINAR</p>","0","","","","","","","",""
