"success","trial_type","trial_index","time_elapsed","internal_node_id","start_time","Id","rt","responses","stimulus","button_pressed","Prueba","X_left","X_right","Y_top","Y_bottom","Circles","Crosses","key_press"
"true","fullscreen","0","2419","0.0-0.0","1532111439168","16-212","","","","","","","","","","","",""
"","survey-text","1","9811","0.0-1.0","1532111439168","16-212","7389","{""Q0"":""16-212""}","","","","","","","","","",""
"","my_image_button","2","37987","0.0-2.0-0.0","1532111439168","16-212","28173","","img/caja.png","0","","","","","","","",""
"","my_image_button","3","52944","0.0-2.0-1.0","1532111439168","16-212","14956","","img/caja_con_ejemplos.png","0","","","","","","","",""
"","my_image_button","4","59915","0.0-2.0-2.0","1532111439168","16-212","6970","","","0","","","","","","","",""
"","teacher","5","84596","0.0-3.0-0.0","1532111439168","16-212","11438","","","","true","130.94","484.13","572.22","737.83","","[475,560],[142,751]","null"
"","teacher","6","97811","0.0-3.0-1.0","1532111439168","16-212","7262","","","","true","288.13","766.52","213.6","348.09","","[283,355],[771,210]","null"
"","teacher","7","107236","0.0-3.0-2.0","1532111439168","16-212","5527","","","","true","160.71","727.48","331.36","764.1","","[160,326],[730,773]","null"
"","teacher","8","114164","0.0-3.0-3.0","1532111439168","16-212","4438","","","","true","393.97","524.27","613.21","794.99","","[391,609],[529,803]","null"
"","check_point_button","9","135527","0.0-4.0","1532111439168","16-212","21361","","<p><font size='25px'>ENTONCES, ¿QUÉ TENÉS QUE HACER? </font></p>","0","","","","","","","",""
"","html-button-response","10","149215","0.0-5.0","1532111439168","16-212","13688","","<p align='center' style='font-size:25px;' > HAY 10 NIVELES <br> ¿ESTÁS LISTO/A PARA EMPEZAR? </p>","0","","","","","","","",""
"","teacher","11","158039","0.0-6.0-0.0","1532111439168","16-212","6174","","","","false","636.91","784.16","509.39","606.59","","[633,505],[789,613]","null"
"","teacher","12","165031","0.0-6.0-1.0","1532111439168","16-212","5270","","","","false","330.56","722.85","418.68","594.59","","[325,414],[728,602]","null"
"","teacher","13","172335","0.0-6.0-2.0","1532111439168","16-212","4904","","","","false","168.14","722.19","327.24","744.27","","[164,750],[727,321]","null"
"","teacher","14","178135","0.0-6.0-3.0","1532111439168","16-212","4535","","","","false","280.35","781.56","607.21","808.95","","[278,816],[789,603]","null"
"","teacher","15","183127","0.0-6.0-4.0","1532111439168","16-212","3838","","","","false","610.33","707.53","683.15","793.58","","[606,679],[712,800]","null"
"","check_point_button","16","185521","0.0-7.0","1532111439168","16-212","2392","","<p><font size='25'>¡FELICITACIONES! <br><br> TERMINASTE EL NIVEL 1</font></p>","0","","","","","","","",""
"","teacher","17","190272","0.0-8.0-0.0","1532111439168","16-212","3956","","","","false","198.66","720.23","713.86","811.06","","[192,708],[726,818]","null"
"","teacher","18","196393","0.0-8.0-1.0","1532111439168","16-212","4734","","","","false","737.21","864.61","207.72","552.25","","[733,559],[871,202]","null"
"","teacher","19","201498","0.0-8.0-2.0","1532111439168","16-212","4151","","","","false","398.88","496.08","654.16","751.36","","[394,757],[502,650]","null"
"","teacher","20","206995","0.0-8.0-3.0","1532111439168","16-212","4183","","","","false","385.49","650.65","224.97","420.31","","[379,427],[658,219]","null"
"","teacher","21","211091","0.0-8.0-4.0","1532111439168","16-212","3254","","","","false","497.84","705.78","536.41","860.27","","[492,530],[711,866]","null"
"","check_point_button","22","213467","0.0-9.0","1532111439168","16-212","2375","","<p><font size='25'>¡FELICITACIONES! <br><br> TERMINASTE EL NIVEL 2</font></p>","0","","","","","","","",""
"","teacher","23","219282","0.0-10.0-0.0","1532111439168","16-212","4662","","","","false","574.13","671.33","341.02","587.54","","[568,335],[677,594]","null"
"","teacher","24","226314","0.0-10.0-1.0","1532111439168","16-212","5423","","","","false","465.43","595.14","229.95","683.69","","[461,225],[600,688]","null"
"","teacher","25","231930","0.0-10.0-2.0","1532111439168","16-212","3735","","","","false","369.45","502.46","246.42","653.87","","[366,242],[508,660]","null"
"","teacher","26","237539","0.0-10.0-3.0","1532111439168","16-212","4424","","","","false","477.77","695.5","327.21","521.08","","[472,323],[701,529]","null"
"","teacher","27","241735","0.0-10.0-4.0","1532111439168","16-212","3214","","","","false","680.38","872.1","664.53","761.73","","[677,660],[878,768]","null"
"","check_point_button","28","243259","0.0-11.0","1532111439168","16-212","1524","","<p><font size='25'>¡FELICITACIONES! <br><br> TERMINASTE EL NIVEL 3</font></p>","0","","","","","","","",""
"","teacher","29","247786","0.0-12.0-0.0","1532111439168","16-212","3749","","","","false","673.44","800.72","452.14","628.22","","[669,449],[808,635]","null"
"","teacher","30","253235","0.0-12.0-1.0","1532111439168","16-212","4048","","","","false","270.34","583.49","291.14","650.24","","[261,284],[591,659]","null"
"","teacher","31","257702","0.0-12.0-2.0","1532111439168","16-212","3015","","","","false","579.91","677.11","241.54","370.58","","[575,234],[687,380]","null"
"","teacher","32","261813","0.0-12.0-3.0","1532111439168","16-212","3141","","","","false","688.42","798.84","705.85","837.23","","[683,699],[808,845]","null"
"","teacher","33","266268","0.0-12.0-4.0","1532111439168","16-212","3166","","","","false","631.12","865.23","373.58","470.78","","[624,369],[875,478]","null"
"","check_point_button","34","267622","0.0-13.0","1532111439168","16-212","1353","","<p><font size='25'>¡FELICITACIONES! <br><br> TERMINASTE EL NIVEL 4</font></p>","0","","","","","","","",""
"","teacher","35","272532","0.0-14.0-0.0","1532111439168","16-212","4022","","","","false","699.25","796.45","316.31","467.51","","[694,313],[804,477]","null"
"","teacher","36","278085","0.0-14.0-1.0","1532111439168","16-212","3734","","","","false","597.15","808.82","422.99","728.48","","[592,420],[817,737]","null"
"","teacher","37","284445","0.0-14.0-2.0","1532111439168","16-212","4999","","","","false","685.62","782.82","158.24","255.44","","[680,259],[790,151]","null"
"","teacher","38","288469","0.0-14.0-3.0","1532111439168","16-212","2990","","","","false","426.51","541","319.79","712.97","","[420,721],[550,315]","null"
"","teacher","39","293133","0.0-14.0-4.0","1532111439168","16-212","3607","","","","false","201.71","581.1","184.05","281.25","","[192,179],[590,297]","null"
"","check_point_button","40","294621","0.0-15.0","1532111439168","16-212","1488","","<p><font size='25'>¡FELICITACIONES! <br><br> TERMINASTE EL NIVEL 5</font></p>","0","","","","","","","",""
"","html-button-response","41","299805","0.0-16.0","1532111439168","16-212","5183","","<p align='center' style='font-size:25px;' > ¡ACORDATE DE QUE CON ESTAS PISTAS OTRO JUGADOR TENDRÁ QUE ADIVINAR EN DÓNDE ESTÁ LA CAJA! </p>","0","","","","","","","",""
"","teacher","42","306605","0.0-17.0-0.0","1532111439168","16-212","5135","","","","false","119.06","216.26","766","863.2","","[114,761],[223,871]","null"
"","teacher","43","312037","0.0-17.0-1.0","1532111439168","16-212","3590","","","","false","671.11","816.06","118.99","234.81","","[662,112],[826,244]","null"
"","teacher","44","317517","0.0-17.0-2.0","1532111439168","16-212","4390","","","","false","717.95","815.15","520.86","673.55","","[715,522],[825,682]","null"
"","teacher","45","321807","0.0-17.0-3.0","1532111439168","16-212","3513","","","","false","558.43","835.35","199.73","757.9","","[548,191],[845,766]","null"
"","teacher","46","327271","0.0-17.0-4.0","1532111439168","16-212","3446","","","","false","340.21","437.41","538.29","699.56","","[332,536],[446,709]","null"
"","check_point_button","47","328895","0.0-18.0","1532111439168","16-212","1624","","<p><font size='25'>¡FELICITACIONES! <br><br> TERMINASTE EL NIVEL 6</font></p>","0","","","","","","","",""
"","teacher","48","333952","0.0-19.0-0.0","1532111439168","16-212","4439","","","","false","591","711.27","756.74","853.94","","[586,749],[721,863]","null"
"","teacher","49","339016","0.0-19.0-1.0","1532111439168","16-212","4134","","","","false","278.13","480.27","220.78","791.76","","[273,217],[487,800]","null"
"","teacher","50","343784","0.0-19.0-2.0","1532111439168","16-212","3728","","","","false","354.01","451.21","239.49","336.69","","[346,234],[458,345]","null"
"","teacher","51","348609","0.0-19.0-3.0","1532111439168","16-212","3390","","","","false","655.14","752.34","372.49","511.12","","[649,369],[759,521]","null"
"","teacher","52","352696","0.0-19.0-4.0","1532111439168","16-212","3101","","","","false","708.42","826.61","681.46","778.66","","[699,676],[836,785]","null"
"","check_point_button","53","353936","0.0-20.0","1532111439168","16-212","1238","","<p><font size='25'>¡FELICITACIONES! <br><br> TERMINASTE EL NIVEL 7</font></p>","0","","","","","","","",""
"","teacher","54","358680","0.0-21.0-0.0","1532111439168","16-212","3950","","","","false","177.67","504.08","452.52","652.5","","[170,448],[514,663]","null"
"","teacher","55","363440","0.0-21.0-1.0","1532111439168","16-212","3543","","","","false","477.76","577.16","597.65","818.66","","[472,591],[584,826]","null"
"","teacher","56","367616","0.0-21.0-2.0","1532111439168","16-212","3295","","","","false","392.91","723.15","615.57","712.77","","[386,610],[733,721]","null"
"","teacher","57","372184","0.0-21.0-3.0","1532111439168","16-212","3534","","","","false","118.48","278.03","529.93","627.13","","[111,523],[286,637]","null"
"","teacher","58","375592","0.0-21.0-4.0","1532111439168","16-212","2591","","","","false","563","660.2","459.61","602.78","","[555,450],[673,613]","null"
"","check_point_button","59","376664","0.0-22.0","1532111439168","16-212","1071","","<p><font size='25'>¡FELICITACIONES! <br><br> TERMINASTE EL NIVEL 8</font></p>","0","","","","","","","",""
"","teacher","60","381123","0.0-23.0-0.0","1532111439168","16-212","3162","","","","false","645.87","777.22","442.43","650.43","","[638,436],[785,661]","null"
"","teacher","61","385787","0.0-23.0-1.0","1532111439168","16-212","3591","","","","false","430.53","731.61","597.16","839.27","","[426,590],[739,846]","null"
"","teacher","62","391003","0.0-23.0-2.0","1532111439168","16-212","3166","","","","false","272.63","630.24","602.71","699.91","","[264,596],[640,708]","null"
"","teacher","63","394939","0.0-23.0-3.0","1532111439168","16-212","3110","","","","false","626.97","724.17","259.42","578.77","","[622,252],[733,586]","null"
"","teacher","64","399675","0.0-23.0-4.0","1532111439168","16-212","3775","","","","false","327.19","812.99","434.38","805.83","","[318,430],[822,812]","null"
"","check_point_button","65","401019","0.0-24.0","1532111439168","16-212","1342","","<p><font size='25'>¡FELICITACIONES! <br><br> TERMINASTE EL NIVEL 9</font></p>","0","","","","","","","",""
"","teacher","66","405932","0.0-25.0-0.0","1532111439168","16-212","4006","","","","false","260.03","688.58","445.09","836.08","","[253,442],[698,846]","null"
"","teacher","67","409995","0.0-25.0-1.0","1532111439168","16-212","3118","","","","false","365.27","462.47","529.4","676.04","","[359,524],[469,687]","null"
"","teacher","68","414931","0.0-25.0-2.0","1532111439168","16-212","3535","","","","false","516.89","855.08","291.1","610.53","","[512,285],[865,616]","null"
"","teacher","69","419299","0.0-25.0-3.0","1532111439168","16-212","3662","","","","false","235.22","763.25","671.09","768.29","","[226,667],[772,776]","null"
"","teacher","70","423459","0.0-25.0-4.0","1532111439168","16-212","3294","","","","false","357.27","846.82","454.32","605.55","","[348,448],[858,612]","null"
"","check_point_button","71","432691","0.0-26.0","1532111439168","16-212","9232","","<p align='center' style='font-size:30px;' > COMPLETASTE TODOS LOS NIVELES  <br><br> ¡FELICITACIONES!<br><br> PRESIONA CUALQUIER TECLA PARA TERMINAR</p>","0","","","","","","","",""
