"success","trial_type","trial_index","time_elapsed","internal_node_id","start_time","Id","rt","responses","stimulus","button_pressed","Prueba","X_left","X_right","Y_top","Y_bottom","Circles","Crosses","key_press"
"true","fullscreen","0","2541","0.0-0.0","1532117557863","7-236","","","","","","","","","","","",""
"","survey-text","1","20730","0.0-1.0","1532117557863","7-236","18188","{""Q0"":""7-236""}","","","","","","","","","",""
"","my_image_button","2","41595","0.0-2.0-0.0","1532117557863","7-236","20862","","img/caja.png","0","","","","","","","",""
"","my_image_button","3","91045","0.0-2.0-1.0","1532117557863","7-236","49449","","img/caja_con_ejemplos.png","0","","","","","","","",""
"","my_image_button","4","106788","0.0-2.0-2.0","1532117557863","7-236","15743","","","0","","","","","","","",""
"","teacher","5","129406","0.0-3.0-0.0","1532117557863","7-236","11965","","","","true","773.01","870.21","393.48","701.45","[790,556]","[767,394]","null"
"","teacher","6","145501","0.0-3.0-1.0","1532117557863","7-236","10534","","","","true","563.53","775.52","433.5","647.5","[770,643],[571,442]","","null"
"","teacher","7","159649","0.0-3.0-2.0","1532117557863","7-236","11850","","","","true","308.93","814.95","537.48","634.68","","[815,632],[301,638]","null"
"","teacher","8","168161","0.0-3.0-3.0","1532117557863","7-236","7071","","","","true","559.68","710.74","199.52","499.33","[562,212]","[720,375]","null"
"","check_point_button","9","200227","0.0-4.0","1532117557863","7-236","32062","","<p><font size='25px'>ENTONCES, ¿QUÉ TENÉS QUE HACER? </font></p>","0","","","","","","","",""
"","html-button-response","10","206642","0.0-5.0","1532117557863","7-236","6414","","<p align='center' style='font-size:25px;' > HAY 10 NIVELES <br> ¿ESTÁS LISTO/A PARA EMPEZAR? </p>","0","","","","","","","",""
"","teacher","11","216403","0.0-6.0-0.0","1532117557863","7-236","8023","","","","false","326.82","490.31","155.17","359.47","","[491,366],[323,156]","null"
"","teacher","12","226455","0.0-6.0-1.0","1532117557863","7-236","7627","","","","false","473.68","721.58","580.85","678.05","[480,669],[715,590]","","null"
"","teacher","13","233071","0.0-6.0-2.0","1532117557863","7-236","4910","","","","false","637.6","771.9","458.44","644.44","[652,638],[761,474]","","null"
"","teacher","14","240559","0.0-6.0-3.0","1532117557863","7-236","5535","","","","false","459.95","770.33","528.12","827.84","","[459,830],[775,526]","null"
"","teacher","15","250080","0.0-6.0-4.0","1532117557863","7-236","7510","","","","false","201.96","826.77","684.56","781.76","[205,690]","[827,779]","null"
"","check_point_button","16","267409","0.0-7.0","1532117557863","7-236","17327","","<p><font size='25'>¡FELICITACIONES! <br><br> TERMINASTE EL NIVEL 1</font></p>","0","","","","","","","",""
"","teacher","17","279600","0.0-8.0-0.0","1532117557863","7-236","10478","","","","false","467.54","575.96","193.37","527.77","[572,519],[476,202]","","null"
"","teacher","18","288200","0.0-8.0-1.0","1532117557863","7-236","6886","","","","false","710.17","822.59","197.59","730.24","","[827,734],[705,196]","null"
"","teacher","19","294640","0.0-8.0-2.0","1532117557863","7-236","4740","","","","false","401.48","645.38","191.35","841.14","[411,202]","[648,832]","null"
"","teacher","20","304960","0.0-8.0-3.0","1532117557863","7-236","8903","","","","false","681.81","867.86","714.51","851.96","[694,848]","[876,715]","null"
"","teacher","21","311727","0.0-8.0-4.0","1532117557863","7-236","4942","","","","false","587.08","694.29","242.23","859.24","","[698,861],[584,244]","null"
"","check_point_button","22","314056","0.0-9.0","1532117557863","7-236","2327","","<p><font size='25'>¡FELICITACIONES! <br><br> TERMINASTE EL NIVEL 2</font></p>","0","","","","","","","",""
"","teacher","23","319920","0.0-10.0-0.0","1532117557863","7-236","4174","","","","false","584.59","713.29","122.05","219.25","[587,132],[709,212]","","null"
"","teacher","24","327000","0.0-10.0-1.0","1532117557863","7-236","5303","","","","false","641.18","816.99","390.87","608.72","[816,401]","[577,627]","null"
"","teacher","25","333792","0.0-10.0-2.0","1532117557863","7-236","5263","","","","false","497.89","834.77","388.23","565.26","[833,558]","[487,340]","null"
"","teacher","26","339456","0.0-10.0-3.0","1532117557863","7-236","4495","","","","false","173.16","815.32","725.25","822.45","[176,731]","[818,820]","null"
"","teacher","27","345863","0.0-10.0-4.0","1532117557863","7-236","4456","","","","false","419.62","700.91","482.87","646.18","[422,496],[698,641]","","null"
"","check_point_button","28","348771","0.0-11.0","1532117557863","7-236","2906","","<p><font size='25'>¡FELICITACIONES! <br><br> TERMINASTE EL NIVEL 3</font></p>","0","","","","","","","",""
"","teacher","29","355299","0.0-12.0-0.0","1532117557863","7-236","5373","","","","false","158.24","380.43","102.03","607.31","[372,600],[169,116]","","null"
"","teacher","30","361243","0.0-12.0-1.0","1532117557863","7-236","4686","","","","false","287.24","384.44","479.61","576.81","[288,482]","[389,574]","null"
"","teacher","31","366843","0.0-12.0-2.0","1532117557863","7-236","4495","","","","false","144.34","550.99","734.78","838.31","","[554,844],[148,733]","null"
"","teacher","32","373091","0.0-12.0-3.0","1532117557863","7-236","3847","","","","false","114.74","497.81","306.45","622.49","[496,619],[118,622]","","null"
"","teacher","33","380931","0.0-12.0-4.0","1532117557863","7-236","6231","","","","false","227.46","817.97","773.64","870.84","[803,867],[228,869]","","null"
"","check_point_button","34","382963","0.0-13.0","1532117557863","7-236","2030","","<p><font size='25'>¡FELICITACIONES! <br><br> TERMINASTE EL NIVEL 4</font></p>","0","","","","","","","",""
"","teacher","35","392308","0.0-14.0-0.0","1532117557863","7-236","8174","","","","false","713.32","864.74","290.93","536.8","","[870,295],[712,541]","null"
"","teacher","36","400300","0.0-14.0-1.0","1532117557863","7-236","6238","","","","false","605.61","806.93","122.78","412.36","[806,407]","[603,123]","null"
"","teacher","37","406413","0.0-14.0-2.0","1532117557863","7-236","4415","","","","false","424.42","537.58","325.24","483.01","[531,479],[428,326]","","null"
"","teacher","38","412670","0.0-14.0-3.0","1532117557863","7-236","4638","","","","false","545.1","679.25","189.44","359.59","[674,358],[552,200]","","null"
"","teacher","39","421918","0.0-14.0-4.0","1532117557863","7-236","7703","","","","false","141.73","716.77","168.08","773.06","[715,767],[145,177]","","null"
"","check_point_button","40","423662","0.0-15.0","1532117557863","7-236","1742","","<p><font size='25'>¡FELICITACIONES! <br><br> TERMINASTE EL NIVEL 5</font></p>","0","","","","","","","",""
"","html-button-response","41","431599","0.0-16.0","1532117557863","7-236","7935","","<p align='center' style='font-size:25px;' > ¡ACORDATE DE QUE CON ESTAS PISTAS OTRO JUGADOR TENDRÁ QUE ADIVINAR EN DÓNDE ESTÁ LA CAJA! </p>","0","","","","","","","",""
"","teacher","42","437447","0.0-17.0-0.0","1532117557863","7-236","4485","","","","false","557.97","791.56","465.72","616.5","[567,606],[783,483]","","null"
"","teacher","43","442982","0.0-17.0-1.0","1532117557863","7-236","4478","","","","false","722.46","840.97","645.32","773.29","[838,770],[725,656]","","null"
"","teacher","44","456286","0.0-17.0-2.0","1532117557863","7-236","10830","","","","false","366.23","734.83","290.3","784.28","","[740,787],[364,287]","null"
"","teacher","45","462255","0.0-17.0-3.0","1532117557863","7-236","4286","","","","false","440","537.2","768.71","865.91","[447,776],[535,858]","","null"
"","teacher","46","470281","0.0-17.0-4.0","1532117557863","7-236","6778","","","","false","576.65","798.77","623.55","720.75","[795,630],[586,715]","","null"
"","check_point_button","47","472330","0.0-18.0","1532117557863","7-236","2047","","<p><font size='25'>¡FELICITACIONES! <br><br> TERMINASTE EL NIVEL 6</font></p>","0","","","","","","","",""
"","teacher","48","482385","0.0-19.0-0.0","1532117557863","7-236","8462","","","","false","531.91","629.11","240.56","629.78","[540,246]","[630,631]","null"
"","teacher","49","488202","0.0-19.0-1.0","1532117557863","7-236","4535","","","","false","170.41","428.13","243.3","557.19","[178,249]","[427,560]","null"
"","teacher","50","494258","0.0-19.0-2.0","1532117557863","7-236","4583","","","","false","270.53","672.7","190.17","541.1","[272,202]","[676,538]","null"
"","teacher","51","499658","0.0-19.0-3.0","1532117557863","7-236","4286","","","","false","209.51","348.7","210.71","788","[343,786],[212,222]","","null"
"","teacher","52","504954","0.0-19.0-4.0","1532117557863","7-236","4238","","","","false","366.94","569.53","455.96","679.38","[367,459]","[568,682]","null"
"","check_point_button","53","506746","0.0-20.0","1532117557863","7-236","1791","","<p><font size='25'>¡FELICITACIONES! <br><br> TERMINASTE EL NIVEL 7</font></p>","0","","","","","","","",""
"","teacher","54","515602","0.0-21.0-0.0","1532117557863","7-236","7606","","","","false","639.35","736.55","166.98","334.78","[733,327],[640,176]","","null"
"","teacher","55","520874","0.0-21.0-1.0","1532117557863","7-236","3726","","","","false","246.75","438.42","247.55","559.68","[435,557]","[245,255]","null"
"","teacher","56","527869","0.0-21.0-2.0","1532117557863","7-236","4326","","","","false","613.79","768.77","120.57","700.37","[764,699],[619,132]","","null"
"","teacher","57","535549","0.0-21.0-3.0","1532117557863","7-236","5631","","","","false","578.53","675.73","436.93","799.19","[675,796],[581,449]","","null"
"","teacher","58","541397","0.0-21.0-4.0","1532117557863","7-236","3838","","","","false","745.75","858.25","273.88","551.05","[747,284]","[862,550]","null"
"","check_point_button","59","544486","0.0-22.0","1532117557863","7-236","3086","","<p><font size='25'>¡FELICITACIONES! <br><br> TERMINASTE EL NIVEL 8</font></p>","0","","","","","","","",""
"","teacher","60","550230","0.0-23.0-0.0","1532117557863","7-236","4543","","","","false","668.49","765.69","258.58","633.04","[669,267]","[768,631]","null"
"","teacher","61","555486","0.0-23.0-1.0","1532117557863","7-236","3502","","","","false","521.45","732.97","627.37","831.96","","[736,837],[521,623]","null"
"","teacher","62","560045","0.0-23.0-2.0","1532117557863","7-236","3451","","","","false","256.18","488.49","526.47","664.79","[309,558]","[496,670]","null"
"","teacher","63","564037","0.0-23.0-3.0","1532117557863","7-236","2077","","","","false","256.07","395.85","199.2","524.59","[338,469],[312,307]","","null"
"","teacher","64","571189","0.0-23.0-4.0","1532117557863","7-236","6087","","","","false","279.72","376.92","719.73","832.6","","[381,828],[280,714]","null"
"","check_point_button","65","573677","0.0-24.0","1532117557863","7-236","2487","","<p><font size='25'>¡FELICITACIONES! <br><br> TERMINASTE EL NIVEL 9</font></p>","0","","","","","","","",""
"","teacher","66","578373","0.0-25.0-0.0","1532117557863","7-236","3639","","","","false","412.88","622.62","158.18","411.04","","[634,411],[409,158]","null"
"","teacher","67","582317","0.0-25.0-1.0","1532117557863","7-236","3254","","","","false","686.56","783.76","717.36","814.56","[776,735],[690,809]","","null"
"","teacher","68","587157","0.0-25.0-2.0","1532117557863","7-236","3029","","","","false","604.71","790.46","700.34","797.54","[779,796]","[605,695]","null"
"","teacher","69","591038","0.0-25.0-3.0","1532117557863","7-236","2849","","","","false","173.44","372.72","673.38","770.58","","[369,775],[167,685]","null"
"","teacher","70","596557","0.0-25.0-4.0","1532117557863","7-236","3654","","","","false","150.97","446.12","608.92","785.97","","[457,789],[157,606]","null"
"","check_point_button","71","617583","0.0-26.0","1532117557863","7-236","21025","","<p align='center' style='font-size:30px;' > COMPLETASTE TODOS LOS NIVELES  <br><br> ¡FELICITACIONES!<br><br> PRESIONA CUALQUIER TECLA PARA TERMINAR</p>","0","","","","","","","",""
