"success","trial_type","trial_index","time_elapsed","internal_node_id","start_time","Id","rt","responses","stimulus","button_pressed","Prueba","X_left","X_right","Y_top","Y_bottom","Circles","Crosses","key_press"
"true","fullscreen","0","8906","0.0-0.0","1532720167295","9-278","","","","","","","","","","","",""
"","survey-text","1","14425","0.0-1.0","1532720167295","9-278","5515","{""Q0"":""9-278""}","","","","","","","","","",""
"","my_image_button","2","33848","0.0-2.0-0.0","1532720167295","9-278","19419","","img/caja.png","0","","","","","","","",""
"","my_image_button","3","60090","0.0-2.0-1.0","1532720167295","9-278","26241","","img/caja_con_ejemplos.png","0","","","","","","","",""
"","my_image_button","4","68282","0.0-2.0-2.0","1532720167295","9-278","8192","","","0","","","","","","","",""
"","teacher","5","102426","0.0-3.0-0.0","1532720167295","9-278","21366","","","","true","645.77","742.97","156.24","621.16","[647,621]","[743,159]","null"
"","teacher","6","115226","0.0-3.0-1.0","1532720167295","9-278","6742","","","","true","747.2","844.4","487.56","584.76","[749,584]","[845,488]","null"
"","teacher","7","129805","0.0-3.0-2.0","1532720167295","9-278","8712","","","","true","507.88","605.08","198.88","435.19","[508,435]","[607,202]","null"
"","teacher","8","140125","0.0-3.0-3.0","1532720167295","9-278","7015","","","","true","714.69","811.89","232.91","330.11","[718,329]","[812,235]","null"
"","check_point_button","9","184281","0.0-4.0","1532720167295","9-278","44155","","<p><font size='25px'>ENTONCES, ¿QUÉ TENÉS QUE HACER? </font></p>","0","","","","","","","",""
"","html-button-response","10","196938","0.0-5.0","1532720167295","9-278","12655","","<p align='center' style='font-size:25px;' > HAY 10 NIVELES <br> ¿ESTÁS LISTO/A PARA EMPEZAR? </p>","0","","","","","","","",""
"","teacher","11","212962","0.0-6.0-0.0","1532720167295","9-278","14430","","","","false","582.21","679.41","195.87","828.62","[583,828]","[680,198]","null"
"","teacher","12","218233","0.0-6.0-1.0","1532720167295","9-278","4237","","","","false","434.73","609.48","719.14","816.34","","[438,719],[611,815]","null"
"","teacher","13","227530","0.0-6.0-2.0","1532720167295","9-278","7798","","","","false","650.98","777.33","301.46","464.52","[775,303],[653,464]","","null"
"","teacher","14","254524","0.0-6.0-3.0","1532720167295","9-278","25058","","","","false","388.57","771.1","200.67","758.16","","[772,758],[388,202]","null"
"","teacher","15","260180","0.0-6.0-4.0","1532720167295","9-278","4518","","","","false","756.89","854.09","578.65","675.85","[758,581],[854,673]","","null"
"","check_point_button","16","265748","0.0-7.0","1532720167295","9-278","5567","","<p><font size='25'>¡FELICITACIONES! <br><br> TERMINASTE EL NIVEL 1</font></p>","0","","","","","","","",""
"","teacher","17","279500","0.0-8.0-0.0","1532720167295","9-278","12895","","","","false","431.64","582.18","380.85","827.93","[432,382]","[582,828]","null"
"","teacher","18","293325","0.0-8.0-1.0","1532720167295","9-278","12855","","","","false","344.53","503.48","126.88","233.66","","[507,232],[344,127]","null"
"","teacher","19","299820","0.0-8.0-2.0","1532720167295","9-278","2926","","","","false","272.32","553.49","562.21","775.28","[275,775]","[508,973]","null"
"","teacher","20","316496","0.0-8.0-3.0","1532720167295","9-278","15130","","","","false","488.62","671.68","118.01","405.77","[489,405]","[672,119]","null"
"","teacher","21","321983","0.0-8.0-4.0","1532720167295","9-278","4423","","","","false","262.42","453.54","545.25","642.45","[264,641],[451,549]","","null"
"","check_point_button","22","328032","0.0-9.0","1532720167295","9-278","6048","","<p><font size='25'>¡FELICITACIONES! <br><br> TERMINASTE EL NIVEL 2</font></p>","0","","","","","","","",""
"","teacher","23","335703","0.0-10.0-0.0","1532720167295","9-278","6270","","","","false","634.79","747.96","150.39","479.04","[636,154]","[749,478]","null"
"","teacher","24","342800","0.0-10.0-1.0","1532720167295","9-278","6150","","","","false","500.94","680.38","175.22","639.22","[679,177],[502,639]","","null"
"","teacher","25","350136","0.0-10.0-2.0","1532720167295","9-278","5927","","","","false","121.47","634.9","459.46","556.66","[123,471]","[619,557]","null"
"","teacher","26","355537","0.0-10.0-3.0","1532720167295","9-278","4311","","","","false","690.47","787.67","545.73","642.93","[691,547]","[785,643]","null"
"","teacher","27","365952","0.0-10.0-4.0","1532720167295","9-278","8102","","","","false","555.85","653.05","116.74","444.24","[653,120]","[560,447]","null"
"","check_point_button","28","371120","0.0-11.0","1532720167295","9-278","5167","","<p><font size='25'>¡FELICITACIONES! <br><br> TERMINASTE EL NIVEL 3</font></p>","0","","","","","","","",""
"","teacher","29","377604","0.0-12.0-0.0","1532720167295","9-278","5488","","","","false","144.57","434.79","486.37","839.24","","[435,487],[145,840]","null"
"","teacher","30","386763","0.0-12.0-1.0","1532720167295","9-278","8237","","","","false","174.08","812.74","457.33","754.4","[177,460],[811,754]","","null"
"","teacher","31","392611","0.0-12.0-2.0","1532720167295","9-278","4974","","","","false","300.44","434.78","658.58","755.78","[433,753],[303,661]","","null"
"","teacher","32","398299","0.0-12.0-3.0","1532720167295","9-278","4846","","","","false","646.72","743.92","525.94","836.58","[742,529],[649,832]","","null"
"","teacher","33","403875","0.0-12.0-4.0","1532720167295","9-278","4751","","","","false","201.84","762.61","367.65","862.48","[204,371],[759,858]","","null"
"","check_point_button","34","408635","0.0-13.0","1532720167295","9-278","4760","","<p><font size='25'>¡FELICITACIONES! <br><br> TERMINASTE EL NIVEL 4</font></p>","0","","","","","","","",""
"","teacher","35","418027","0.0-14.0-0.0","1532720167295","9-278","8327","","","","false","200.66","321.09","369.6","466.8","[201,371]","[320,467]","null"
"","teacher","36","426923","0.0-14.0-1.0","1532720167295","9-278","7951","","","","false","648.83","746.03","767.95","865.15","","[652,767],[746,866]","null"
"","teacher","37","432827","0.0-14.0-2.0","1532720167295","9-278","4678","","","","false","496.54","748.62","512.22","609.42","[499,516],[747,607]","","null"
"","teacher","38","438853","0.0-14.0-3.0","1532720167295","9-278","4409","","","","false","371.45","500.97","172.32","744.83","","[370,175],[492,747]","null"
"","teacher","39","443686","0.0-14.0-4.0","1532720167295","9-278","3695","","","","false","598.15","710.25","539.66","811.57","[599,542]","[707,819]","null"
"","check_point_button","40","459863","0.0-15.0","1532720167295","9-278","16176","","<p><font size='25'>¡FELICITACIONES! <br><br> TERMINASTE EL NIVEL 5</font></p>","0","","","","","","","",""
"","html-button-response","41","470254","0.0-16.0","1532720167295","9-278","10390","","<p align='center' style='font-size:25px;' > ¡ACORDATE DE QUE CON ESTAS PISTAS OTRO JUGADOR TENDRÁ QUE ADIVINAR EN DÓNDE ESTÁ LA CAJA! </p>","0","","","","","","","",""
"","teacher","42","476918","0.0-17.0-0.0","1532720167295","9-278","5598","","","","false","689.71","823.64","231.69","619.08","","[687,239],[819,620]","null"
"","teacher","43","484423","0.0-17.0-1.0","1532720167295","9-278","6518","","","","false","516.69","715.49","409.62","595.6","[518,410]","[716,595]","null"
"","teacher","44","490558","0.0-17.0-2.0","1532720167295","9-278","4879","","","","false","363.8","602.05","211.33","308.53","[601,306],[368,215]","","null"
"","teacher","45","496585","0.0-17.0-3.0","1532720167295","9-278","5042","","","","false","574.11","872.52","563.9","661.1","[580,569],[868,656]","","null"
"","teacher","46","501753","0.0-17.0-4.0","1532720167295","9-278","4311","","","","false","607.64","842.64","762.21","859.41","[612,765],[842,859]","","null"
"","check_point_button","47","506442","0.0-18.0","1532720167295","9-278","4687","","<p><font size='25'>¡FELICITACIONES! <br><br> TERMINASTE EL NIVEL 6</font></p>","0","","","","","","","",""
"","teacher","48","511587","0.0-19.0-0.0","1532720167295","9-278","4167","","","","false","194.18","639.31","743.49","840.69","[197,747],[637,838]","","null"
"","teacher","49","519938","0.0-19.0-1.0","1532720167295","9-278","7358","","","","false","239.98","768.12","121.54","761.14","[758,134],[253,752]","","null"
"","teacher","50","528618","0.0-19.0-2.0","1532720167295","9-278","7479","","","","false","98.39","606.86","539.78","719.96","[102,542],[605,716]","","null"
"","teacher","51","533706","0.0-19.0-3.0","1532720167295","9-278","3445","","","","false","161.61","317.91","693.04","790.24","[317,789]","[163,693]","null"
"","teacher","52","539330","0.0-19.0-4.0","1532720167295","9-278","4854","","","","false","476.73","605.08","730.83","860.14","[604,733],[478,858]","","null"
"","check_point_button","53","544417","0.0-20.0","1532720167295","9-278","5087","","<p><font size='25'>¡FELICITACIONES! <br><br> TERMINASTE EL NIVEL 7</font></p>","0","","","","","","","",""
"","teacher","54","551570","0.0-21.0-0.0","1532720167295","9-278","5942","","","","false","374.87","497.98","337.55","698.18","[378,340],[497,697]","","null"
"","teacher","55","557555","0.0-21.0-1.0","1532720167295","9-278","5008","","","","false","674.07","819.79","688.51","785.71","[818,691],[676,784]","","null"
"","teacher","56","561755","0.0-21.0-2.0","1532720167295","9-278","3367","","","","false","255.55","639.62","355.79","807.23","[635,804]","[257,354]","null"
"","teacher","57","569812","0.0-21.0-3.0","1532720167295","9-278","6759","","","","false","553.05","805.48","569.61","666.81","[555,573],[799,666]","","null"
"","teacher","58","578924","0.0-21.0-4.0","1532720167295","9-278","7751","","","","false","502.69","852.76","504.58","741.72","[852,507],[508,738]","","null"
"","check_point_button","59","585605","0.0-22.0","1532720167295","9-278","6680","","<p><font size='25'>¡FELICITACIONES! <br><br> TERMINASTE EL NIVEL 8</font></p>","0","","","","","","","",""
"","teacher","60","591219","0.0-23.0-0.0","1532720167295","9-278","4390","","","","false","644.11","824.66","505.34","602.54","","[643,605],[828,502]","null"
"","teacher","61","595772","0.0-23.0-1.0","1532720167295","9-278","3182","","","","false","269.77","366.97","390.73","514.66","[280,391]","[354,516]","null"
"","teacher","62","603684","0.0-23.0-2.0","1532720167295","9-278","6191","","","","false","319.72","761.92","282.12","775.89","[322,284]","[764,774]","null"
"","teacher","63","610900","0.0-23.0-3.0","1532720167295","9-278","5159","","","","false","510.22","804.05","701.1","833.99","[512,702]","[806,830]","null"
"","teacher","64","617047","0.0-23.0-4.0","1532720167295","9-278","4743","","","","false","661.79","788.32","530.59","723.72","[663,534]","[789,724]","null"
"","check_point_button","65","627943","0.0-24.0","1532720167295","9-278","10895","","<p><font size='25'>¡FELICITACIONES! <br><br> TERMINASTE EL NIVEL 9</font></p>","0","","","","","","","",""
"","teacher","66","634024","0.0-25.0-0.0","1532720167295","9-278","4975","","","","false","610.87","708.07","443.33","851.29","[613,446],[708,848]","","null"
"","teacher","67","642560","0.0-25.0-1.0","1532720167295","9-278","7550","","","","false","189.27","286.47","467.5","803.56","[286,473],[194,801]","","null"
"","teacher","68","647312","0.0-25.0-2.0","1532720167295","9-278","3902","","","","false","410.56","597.73","610.52","797.84","[413,611]","[598,798]","null"
"","teacher","69","655248","0.0-25.0-3.0","1532720167295","9-278","7104","","","","false","216.25","514.87","295.72","742.32","[511,297],[220,737]","","null"
"","teacher","70","661175","0.0-25.0-4.0","1532720167295","9-278","4166","","","","false","146.55","376.57","358.28","724.29","[147,361],[375,722]","","null"
"","check_point_button","71","668640","0.0-26.0","1532720167295","9-278","7463","","<p align='center' style='font-size:30px;' > COMPLETASTE TODOS LOS NIVELES  <br><br> ¡FELICITACIONES!<br><br> PRESIONA CUALQUIER TECLA PARA TERMINAR</p>","0","","","","","","","",""
