"success","trial_type","trial_index","time_elapsed","internal_node_id","start_time","id_teacher","id_learner","rt","responses","player_id","session_id","Teachers_Box","Learners_Guess","Circles","Crosses","Consistency","canvas_size","won","key_press","stimulus","button_pressed"
"true","fullscreen","0","21007","0.0-0.0","1532118985903","10-242","10-234","","","","","","","","","","","","","",""
"","survey-text","1","55623","0.0-1.0","1532118985903","10-242","10-234","34614","{""Q0"":""10-234"",""Q1"":""10-242""}","","","","","","","","","","","",""
"","waiting-room","2","154716","0.0-2.0","1532118985903","10-242","10-234","","","0","5a93df6f-622c-4599-8f7d-157dee06ae8d","","","","","","","","","",""
"","learner","3","293299","0.0-3.0-0.0","1532118985903","10-242","10-234","10504,19914,8604,8963,12321,8957,7594","","","","[459,545,652,738]","[313,532,576,724],[300,545,653,767],[462,628,612,763],[455,585,621,730],[444,595,651,749],[357,542,648,743],[461,536,644,744]","[502,698]","[445,639],[448,752],[549,754],[558,644],[554,698],[446,697]","true,true,true,true,true,true,true","864,864","true","null","",""
"","html-button-response","4","296302","0.0-3.0-2.0-0.0","1532118985903","10-242","10-234","null","","","","","","","","","","","","¡ENCONTRARON LA CAJA! PASEMOS A LA SIGUIENTE","null"
"","learner","5","342663","0.0-3.0-3.0","1532118985903","10-242","10-234","5228,7734","","","","[675,761,646,761]","[626,759,643,759],[674,794,645,802]","[715,707]","[647,705]","true,true","864,864","true","null","",""
"","html-button-response","6","345664","0.0-3.0-5.0-0.0","1532118985903","10-242","10-234","null","","","","","","","","","","","","¡ENCONTRARON LA CAJA! PASEMOS A LA SIGUIENTE","null"
"","check_point_button","7","408300","0.0-4.0","1532118985903","10-242","10-234","62633","","","","","","","","","","","","<p><font size='25px'>ENTONCES, ¿QUÉ TENÉS QUE HACER? </font></p>","0"
"","html-button-response","8","411748","0.0-5.0","1532118985903","10-242","10-234","3447","","","","","","","","","","","","<p align='center' style='font-size:25px;' > EL JUEGO TIENE 4 NIVELES <br> ¿LISTX PARA EMPEZAR? </p>","0"
"","waiting-room","9","420259","0.0-6.0","1532118985903","10-242","10-234","","","0","14d68ae6-d04a-445c-a6fd-29f07c08f2f5","","","","","","","","","",""
"","learner","10","534874","0.0-7.0-0.0","1532118985903","10-242","10-234","6628,5877,7150,6198,9981,6381,6365,5858","","","","[600,695,525,611]","[616,696,495,651],[417,670,509,591],[595,678,410,714],[563,761,407,738],[580,767,506,686],[558,738,519,643],[579,719,533,617],[560,721,508,623]","[645,567],[608,568],[688,581],[648,530]","[534,554],[680,483],[730,653],[654,628]","true,true,true,true,true,true,true,true","864,864","false","null","",""
"","html-button-response","11","537876","0.0-7.0-1.0-0.0","1532118985903","10-242","10-234","null","","","","","","","","","","","","SE ACABARON LAS PISTAS. PASEMOS A LA SIGUIENTE CAJA.","null"
"","learner","12","651589","0.0-7.0-3.0","1532118985903","10-242","10-234","5486,5236,7695,21505,5263,5439,10005","","","","[463,675,682,768]","[517,645,712,784],[396,661,673,778],[360,715,570,835],[471,726,634,792],[465,740,695,796],[436,719,694,759],[454,675,666,744]","[569,728],[504,727],[667,727],[569,687]","[435,635],[686,675],[699,778]","true,true,true,true,true,true,true","864,864","true","null","",""
"","html-button-response","13","654592","0.0-7.0-5.0-0.0","1532118985903","10-242","10-234","null","","","","","","","","","","","","¡ENCONTRARON LA CAJA! PASEMOS A LA SIGUIENTE","null"
"","learner","14","712762","0.0-7.0-6.0","1532118985903","10-242","10-234","5423,5846,4423,6588,6777","","","","[443,691,219,327]","[496,616,218,582],[368,671,224,294],[303,724,233,356],[401,759,267,368],[430,706,242,326]","[565,279],[474,280],[681,312]","[380,320],[557,334]","true,true,true,true,true","864,864","true","null","",""
"","html-button-response","15","715767","0.0-7.0-8.0-0.0","1532118985903","10-242","10-234","null","","","","","","","","","","","","¡ENCONTRARON LA CAJA! PASEMOS A LA SIGUIENTE","null"
"","learner","16","778794","0.0-7.0-9.0","1532118985903","10-242","10-234","3952,5216,8068,5552,10602","","","","[463,591,91,384]","[425,440,618,685],[387,549,277,385],[452,666,299,379],[502,583,148,382],[482,591,123,385]","[532,372],[539,251],[540,146]","[531,390],[437,322]","true,true,true,true,true","864,864","true","null","",""
"","html-button-response","17","781796","0.0-7.0-11.0-0.0","1532118985903","10-242","10-234","null","","","","","","","","","","","","¡ENCONTRARON LA CAJA! PASEMOS A LA SIGUIENTE","null"
"","learner","18","959465","0.0-7.0-12.0","1532118985903","10-242","10-234","5960,9601,11161,5259,18769,24389,26543,12640","","","","[489,575,288,584]","[502,618,363,648],[496,639,150,519],[478,630,162,672],[495,608,216,572],[442,600,270,577],[488,623,276,575],[488,624,245,588],[490,578,305,588]","[532,427],[520,321],[533,553],[493,464],[535,582]","[528,589],[485,466],[580,286]","true,true,true,true,true,true,true,true","864,864","true","null","",""
"","html-button-response","19","962471","0.0-7.0-14.0-0.0","1532118985903","10-242","10-234","null","","","","","","","","","","","","¡ENCONTRARON LA CAJA! PASEMOS A LA SIGUIENTE","null"
"","check_point_button","20","973025","0.0-8.0","1532118985903","10-242","10-234","10554","","","","","","","","","","","","<p><font size='25'>¡FELICITACIONES! <br><br> TERMINARON EL NIVEL </font></p>","0"
"","waiting-room","21","973597","0.0-9.0","1532118985903","10-242","10-234","","","0","38c0c424-f6bc-4dc4-973a-5542d3c30b67","","","","","","","","","",""
"","learner","22","1028634","0.0-10.0-0.0","1532118985903","10-242","10-234","5827,4611,5546,5592,11027","","","","[280,633,156,456]","[409,504,215,394],[248,568,101,421],[184,756,72,431],[174,752,86,521],[274,642,142,464]","[452,303],[285,159],[628,162],[629,452],[286,453]","","true,true,true,true,true","864,864","true","null","",""
"","html-button-response","23","1031637","0.0-10.0-2.0-0.0","1532118985903","10-242","10-234","null","","","","","","","","","","","","¡ENCONTRARON LA CAJA! PASEMOS A LA SIGUIENTE","null"
"","learner","24","1064954","0.0-10.0-3.0","1532118985903","10-242","10-234","5148,6426,7930","","","","[215,503,400,592]","[217,399,274,409],[211,539,176,430],[202,529,394,602]","[219,403],[500,404],[500,588]","","true,true,true","864,864","true","null","",""
"","html-button-response","25","1067955","0.0-10.0-5.0-0.0","1532118985903","10-242","10-234","null","","","","","","","","","","","","¡ENCONTRARON LA CAJA! PASEMOS A LA SIGUIENTE","null"
"","learner","26","1076529","0.0-10.0-6.0","1532118985903","10-242","10-234","5665","","","","[301,486,253,538]","[292,517,242,498]","[307,256]","","true","864,864","true","null","",""
"","html-button-response","27","1079532","0.0-10.0-8.0-0.0","1532118985903","10-242","10-234","null","","","","","","","","","","","","¡ENCONTRARON LA CAJA! PASEMOS A LA SIGUIENTE","null"
"","learner","28","1126718","0.0-10.0-9.0","1532118985903","10-242","10-234","4180,5283,7467,14578","","","","[179,756,346,432]","[139,375,292,602],[53,780,171,380],[98,786,171,514],[181,763,340,434]","[181,350],[754,352],[753,431],[183,425]","","true,true,true,true","864,864","true","null","",""
"","html-button-response","29","1129720","0.0-10.0-11.0-0.0","1532118985903","10-242","10-234","null","","","","","","","","","","","","¡ENCONTRARON LA CAJA! PASEMOS A LA SIGUIENTE","null"
"","learner","30","1162226","0.0-10.0-12.0","1532118985903","10-242","10-234","4546,8141,5636","","","","[222,563,575,661]","[223,414,375,587],[220,565,395,586],[217,564,573,663]","[227,580],[560,581],[559,656]","","true,true,true","864,864","true","null","",""
"","html-button-response","31","1165228","0.0-10.0-14.0-0.0","1532118985903","10-242","10-234","null","","","","","","","","","","","","¡ENCONTRARON LA CAJA! PASEMOS A LA SIGUIENTE","null"
"","check_point_button","32","1167170","0.0-11.0","1532118985903","10-242","10-234","1942","","","","","","","","","","","","<p><font size='25'>¡FELICITACIONES! <br><br> TERMINARON EL NIVEL </font></p>","0"
"","waiting-room","33","1167695","0.0-12.0","1532118985903","10-242","10-234","","","0","ef176129-3443-46ce-a29c-d072386cf7bb","","","","","","","","","",""
"","learner","34","1211881","0.0-13.0-0.0","1532118985903","10-242","10-234","10707,9971,5958","","","","[414,564,678,764]","[279,673,669,710],[395,581,676,817],[412,576,683,765]","[420,684],[560,685],[418,763]","","true,true,true","864,864","true","null","",""
"","html-button-response","35","1214883","0.0-13.0-2.0-0.0","1532118985903","10-242","10-234","null","","","","","","","","","","","","¡ENCONTRARON LA CAJA! PASEMOS A LA SIGUIENTE","null"
"","learner","36","1250449","0.0-13.0-3.0","1532118985903","10-242","10-234","4933,7085,5421","","","","[375,461,358,496]","[371,667,229,367],[370,463,267,364],[369,461,357,500]","[379,361],[458,361],[380,493]","","true,true,true","864,864","true","null","",""
"","html-button-response","37","1253451","0.0-13.0-5.0-0.0","1532118985903","10-242","10-234","null","","","","","","","","","","","","¡ENCONTRARON LA CAJA! PASEMOS A LA SIGUIENTE","null"
"","learner","38","1282909","0.0-13.0-6.0","1532118985903","10-242","10-234","4509,8651,7117","","","","[566,652,226,353]","[398,579,226,423],[554,658,228,409],[565,655,225,356]","[570,230],[650,231],[572,350]","","true,true,true","864,864","true","null","",""
"","html-button-response","39","1285910","0.0-13.0-8.0-0.0","1532118985903","10-242","10-234","null","","","","","","","","","","","","¡ENCONTRARON LA CAJA! PASEMOS A LA SIGUIENTE","null"
"","learner","40","1334770","0.0-13.0-9.0","1532118985903","10-242","10-234","5461,7510,13574","","","","[260,513,402,525]","[257,414,208,409],[255,517,270,411],[261,521,398,534]","[264,406],[511,407],[265,522]","","true,true,true","864,864","true","null","",""
"","html-button-response","41","1337772","0.0-13.0-11.0-0.0","1532118985903","10-242","10-234","null","","","","","","","","","","","","¡ENCONTRARON LA CAJA! PASEMOS A LA SIGUIENTE","null"
"","learner","42","1398152","0.0-13.0-12.0","1532118985903","10-242","10-234","6886,12300,6713,6190","","","","[569,737,427,683]","[195,582,244,436],[568,737,176,430],[561,739,433,686],[572,739,425,694]","[573,431],[734,431],[734,682],[575,681]","","true,false,false,true","864,864","true","null","",""
"","html-button-response","43","1401154","0.0-13.0-14.0-0.0","1532118985903","10-242","10-234","null","","","","","","","","","","","","¡ENCONTRARON LA CAJA! PASEMOS A LA SIGUIENTE","null"
"","check_point_button","44","1404794","0.0-14.0","1532118985903","10-242","10-234","3638","","","","","","","","","","","","<p><font size='25'>¡FELICITACIONES! <br><br> TERMINARON EL NIVEL </font></p>","0"
"","waiting-room","45","1405324","0.0-15.0","1532118985903","10-242","10-234","","","0","fbb2b005-01e5-41f1-9eea-522fb792e90f","","","","","","","","","",""
"","learner","46","1453244","0.0-16.0-0.0","1532118985903","10-242","10-234","8788,8471,4916","","","","[139,225,664,750]","[132,451,617,674],[133,233,437,673],[137,232,667,752]","[143,668],[223,668],[144,748]","","true,true,true","864,864","true","null","",""
"","html-button-response","47","1456245","0.0-16.0-2.0-0.0","1532118985903","10-242","10-234","null","","","","","","","","","","","","¡ENCONTRARON LA CAJA! PASEMOS A LA SIGUIENTE","null"
"","learner","48","1498062","0.0-16.0-3.0","1532118985903","10-242","10-234","6975,8692,6682","","","","[400,770,281,619]","[393,594,280,420],[391,775,283,500],[393,777,272,627]","[403,284],[768,284],[768,618]","","true,true,true","864,864","true","null","",""
"","html-button-response","49","1501063","0.0-16.0-5.0-0.0","1532118985903","10-242","10-234","null","","","","","","","","","","","","¡ENCONTRARON LA CAJA! PASEMOS A LA SIGUIENTE","null"
"","learner","50","1553155","0.0-16.0-6.0","1532118985903","10-242","10-234","3783,10192,8145","","","","[524,735,662,748]","[575,576,494,495],[522,738,508,673],[523,740,658,753]","[528,665],[732,666],[528,745]","","false,true,true","864,864","true","null","",""
"","html-button-response","51","1556157","0.0-16.0-8.0-0.0","1532118985903","10-242","10-234","null","","","","","","","","","","","","¡ENCONTRARON LA CAJA! PASEMOS A LA SIGUIENTE","null"
"","learner","52","1595310","0.0-16.0-9.0","1532118985903","10-242","10-234","7912,6937,9231","","","","[627,767,472,708]","[223,636,118,485],[625,772,323,482],[625,772,474,710]","[631,476],[765,477],[764,705]","","true,true,true","864,864","true","null","",""
"","html-button-response","53","1598312","0.0-16.0-11.0-0.0","1532118985903","10-242","10-234","null","","","","","","","","","","","","¡ENCONTRARON LA CAJA! PASEMOS A LA SIGUIENTE","null"
"","learner","54","1643180","0.0-16.0-12.0","1532118985903","10-242","10-234","5274,7920,9176","","","","[104,309,476,562]","[108,240,471,728],[104,314,477,726],[103,322,472,565]","[108,480],[307,481],[109,558]","","true,true,true","864,864","true","null","",""
"","html-button-response","55","1646182","0.0-16.0-14.0-0.0","1532118985903","10-242","10-234","null","","","","","","","","","","","","¡ENCONTRARON LA CAJA! PASEMOS A LA SIGUIENTE","null"
"","check_point_button","56","1695336","0.0-17.0","1532118985903","10-242","10-234","49153","","","","","","","","","","","","<p align='center' style='font-size:30px;' > COMPLETASTE TODOS LOS NIVELES  <br><br> ¡FELICITACIONES!<br><br> PRESIONA CUALQUIER TECLA PARA TERMINAR</p>","0"
