"success","trial_type","trial_index","time_elapsed","internal_node_id","start_time","Id","rt","responses","stimulus","button_pressed","Prueba","X_left","X_right","Y_top","Y_bottom","Circles","Crosses","key_press"
"true","fullscreen","0","2068","0.0-0.0","1532720531591","8-282","","","","","","","","","","","",""
"","survey-text","1","9419","0.0-1.0","1532720531591","8-282","7346","{""Q0"":""8-282""}","","","","","","","","","",""
"","my_image_button","2","10538","0.0-2.0-0.0","1532720531591","8-282","1117","","img/caja.png","0","","","","","","","",""
"","my_image_button","3","12706","0.0-2.0-1.0","1532720531591","8-282","2167","","img/caja_con_ejemplos.png","0","","","","","","","",""
"","my_image_button","4","14266","0.0-2.0-2.0","1532720531591","8-282","1558","","","0","","","","","","","",""
"","teacher","5","35635","0.0-3.0-0.0","1532720531591","8-282","11589","","","","true","160.99","753.29","177.81","818.11","[280,250]","[269,138]","null"
"","teacher","6","49595","0.0-3.0-1.0","1532720531591","8-282","7254","","","","true","759.38","856.58","120.27","648.28","","[438,627],[480,306]","null"
"","teacher","7","61157","0.0-3.0-2.0","1532720531591","8-282","4006","","","","true","298.86","649.16","519.28","651.32","[525,589]","[556,222]","null"
"","teacher","8","77917","0.0-3.0-3.0","1532720531591","8-282","7631","","","","true","165.22","863.89","713.47","810.67","[682,740]","[469,204]","null"
"","check_point_button","9","83198","0.0-4.0","1532720531591","8-282","5279","","<p><font size='25px'>ENTONCES, ¿QUÉ TENÉS QUE HACER? </font></p>","0","","","","","","","",""
"","html-button-response","10","85453","0.0-5.0","1532720531591","8-282","2255","","<p align='center' style='font-size:25px;' > HAY 10 NIVELES <br> ¿ESTÁS LISTO/A PARA EMPEZAR? </p>","0","","","","","","","",""
"","teacher","11","91925","0.0-6.0-0.0","1532720531591","8-282","4934","","","","false","773.57","870.77","195.08","551.09","[831,279],[820,530]","","null"
"","teacher","12","95701","0.0-6.0-1.0","1532720531591","8-282","2014","","","","false","447.48","745.13","585.48","731.1","[679,607]","[604,351]","null"
"","teacher","13","101901","0.0-6.0-2.0","1532720531591","8-282","2671","","","","false","520.41","728.75","764.76","861.96","[582,825],[709,786]","","null"
"","teacher","14","140952","0.0-6.0-3.0","1532720531591","8-282","9174","","","","false","100.86","609.06","677.1","833.64","[324,724]","[423,481]","null"
"","teacher","15","147464","0.0-6.0-4.0","1532720531591","8-282","5183","","","","false","688.61","785.81","753.15","850.35","[759,814],[717,820]","","null"
"","check_point_button","16","151008","0.0-7.0","1532720531591","8-282","3542","","<p><font size='25'>¡FELICITACIONES! <br><br> TERMINASTE EL NIVEL 1</font></p>","0","","","","","","","",""
"","teacher","17","154824","0.0-8.0-0.0","1532720531591","8-282","1821","","","","false","343.8","671.81","526.2","730.55","[434,646],[607,635]","","null"
"","teacher","18","161753","0.0-8.0-1.0","1532720531591","8-282","5831","","","","false","206.91","304.11","102.72","798.21","[275,127]","[243,871]","null"
"","teacher","19","167040","0.0-8.0-2.0","1532720531591","8-282","3894","","","","false","515.02","612.22","565.61","685.32","[602,578]","[188,897]","null"
"","teacher","20","171560","0.0-8.0-3.0","1532720531591","8-282","1919","","","","false","455.54","641.08","532.15","788.98","[555,706]","[746,238]","null"
"","teacher","21","182784","0.0-8.0-4.0","1532720531591","8-282","8079","","","","false","400.02","861.68","278.86","440.46","[713,318],[522,378]","","null"
"","check_point_button","22","184905","0.0-9.0","1532720531591","8-282","2120","","<p><font size='25'>¡FELICITACIONES! <br><br> TERMINASTE EL NIVEL 2</font></p>","0","","","","","","","",""
"","teacher","23","190048","0.0-10.0-0.0","1532720531591","8-282","3583","","","","false","774.46","871.66","303.61","478.66","[839,352]","[51,932]","null"
"","teacher","24","195377","0.0-10.0-1.0","1532720531591","8-282","3824","","","","false","605.22","702.42","398.52","578.47","[691,478],[695,495]","","null"
"","teacher","25","198201","0.0-10.0-2.0","1532720531591","8-282","1558","","","","false","364.15","857.95","755.95","853.15","[626,803],[607,809]","","null"
"","teacher","26","201484","0.0-10.0-3.0","1532720531591","8-282","1704","","","","false","725.02","822.22","190.75","622.92","[780,479],[771,599]","","null"
"","teacher","27","204636","0.0-10.0-4.0","1532720531591","8-282","1783","","","","false","360.16","493.18","246.65","528.98","[440,403]","[613,627]","null"
"","check_point_button","28","206652","0.0-11.0","1532720531591","8-282","2015","","<p><font size='25'>¡FELICITACIONES! <br><br> TERMINASTE EL NIVEL 3</font></p>","0","","","","","","","",""
"","teacher","29","209976","0.0-12.0-0.0","1532720531591","8-282","1359","","","","false","741.63","838.83","479.43","779.35","","[736,619],[633,640]","null"
"","teacher","30","212709","0.0-12.0-1.0","1532720531591","8-282","1258","","","","false","532.65","629.85","375.33","621.79","[559,597]","[544,718]","null"
"","teacher","31","216548","0.0-12.0-2.0","1532720531591","8-282","2950","","","","false","246","552.44","101.19","677.32","[413,132]","[438,784]","null"
"","teacher","32","219892","0.0-12.0-3.0","1532720531591","8-282","1950","","","","false","378.44","548.49","627.92","864.99","[515,653]","[573,457]","null"
"","teacher","33","228060","0.0-12.0-4.0","1532720531591","8-282","2655","","","","false","473.35","815.86","180.64","277.84","[720,248]","[703,322]","null"
"","check_point_button","34","229828","0.0-13.0","1532720531591","8-282","1767","","<p><font size='25'>¡FELICITACIONES! <br><br> TERMINASTE EL NIVEL 4</font></p>","0","","","","","","","",""
"","teacher","35","233316","0.0-14.0-0.0","1532720531591","8-282","1790","","","","false","389.06","819.45","639.97","737.17","[526,691],[541,695]","","null"
"","teacher","36","237469","0.0-14.0-1.0","1532720531591","8-282","1479","","","","false","447.19","592.54","477.92","664.96","[559,554],[542,597]","","null"
"","teacher","37","240685","0.0-14.0-2.0","1532720531591","8-282","1207","","","","false","357.63","514.28","150.98","852.84","[491,500]","[543,521]","null"
"","teacher","38","243421","0.0-14.0-3.0","1532720531591","8-282","1431","","","","false","753.24","868.39","323.75","701.49","[805,534]","[665,621]","null"
"","teacher","39","247212","0.0-14.0-4.0","1532720531591","8-282","2807","","","","false","308.19","405.39","266.25","686.74","[385,562]","[406,639]","null"
"","check_point_button","40","248349","0.0-15.0","1532720531591","8-282","1136","","<p><font size='25'>¡FELICITACIONES! <br><br> TERMINASTE EL NIVEL 5</font></p>","0","","","","","","","",""
"","html-button-response","41","256861","0.0-16.0","1532720531591","8-282","8511","","<p align='center' style='font-size:25px;' > ¡ACORDATE DE QUE CON ESTAS PISTAS OTRO JUGADOR TENDRÁ QUE ADIVINAR EN DÓNDE ESTÁ LA CAJA! </p>","0","","","","","","","",""
"","teacher","42","268799","0.0-17.0-0.0","1532720531591","8-282","10201","","","","false","630.59","727.79","404.76","822.4","[648,481]","[722,281]","null"
"","teacher","43","345300","0.0-17.0-1.0","1532720531591","8-282","5599","","","","false","654.02","848.14","186.43","792.59","[766,414]","[461,268]","null"
"","teacher","44","349075","0.0-17.0-2.0","1532720531591","8-282","1511","","","","false","376.69","654.3","577.29","805.45","[572,682]","[809,9]","null"
"","teacher","45","351348","0.0-17.0-3.0","1532720531591","8-282","1256","","","","false","322.46","714.27","724.6","821.8","[599,773]","[624,657]","null"
"","teacher","46","355604","0.0-17.0-4.0","1532720531591","8-282","3038","","","","false","419.51","516.71","411.32","508.52","[454,451],[503,506]","","null"
"","check_point_button","47","357243","0.0-18.0","1532720531591","8-282","1638","","<p><font size='25'>¡FELICITACIONES! <br><br> TERMINASTE EL NIVEL 6</font></p>","0","","","","","","","",""
"","teacher","48","359618","0.0-19.0-0.0","1532720531591","8-282","1493","","","","false","323.67","623.85","146.11","613.82","[510,562]","[489,703]","null"
"","teacher","49","362867","0.0-19.0-1.0","1532720531591","8-282","1055","","","","false","140.46","511.48","474.17","638.68","[486,599]","[708,639]","null"
"","teacher","50","365579","0.0-19.0-2.0","1532720531591","8-282","1416","","","","false","220.74","438.21","502.25","648.12","[368,611]","[375,748]","null"
"","teacher","51","371011","0.0-19.0-3.0","1532720531591","8-282","2174","","","","false","733.51","830.71","660.76","816.53","[794,749]","[841,584]","null"
"","teacher","52","377204","0.0-19.0-4.0","1532720531591","8-282","3135","","","","false","465.82","701.14","129.03","226.23","[625,153],[624,170]","","null"
"","check_point_button","53","378491","0.0-20.0","1532720531591","8-282","1286","","<p><font size='25'>¡FELICITACIONES! <br><br> TERMINASTE EL NIVEL 7</font></p>","0","","","","","","","",""
"","teacher","54","382307","0.0-21.0-0.0","1532720531591","8-282","2055","","","","false","134.43","232","328.61","425.81","[206,354],[181,386]","","null"
"","teacher","55","384811","0.0-21.0-1.0","1532720531591","8-282","1503","","","","false","519.11","706","230.98","865.52","[624,681],[578,775]","","null"
"","teacher","56","387579","0.0-21.0-2.0","1532720531591","8-282","1559","","","","false","455.94","553.14","467.56","732.44","[525,679],[522,694]","","null"
"","teacher","57","393202","0.0-21.0-3.0","1532720531591","8-282","4007","","","","false","447.14","544.34","625.36","722.56","[504,650]","[606,75]","null"
"","teacher","58","400244","0.0-21.0-4.0","1532720531591","8-282","5111","","","","false","538.79","863.32","228.35","714.6","[852,237],[549,709]","","null"
"","check_point_button","59","408069","0.0-22.0","1532720531591","8-282","7825","","<p><font size='25'>¡FELICITACIONES! <br><br> TERMINASTE EL NIVEL 8</font></p>","0","","","","","","","",""
"","teacher","60","411045","0.0-23.0-0.0","1532720531591","8-282","1768","","","","false","477.4","804.72","587.07","684.27","[534,628],[623,657]","","null"
"","teacher","61","413237","0.0-23.0-1.0","1532720531591","8-282","1319","","","","false","403.44","683.66","563.12","799.13","[535,676],[517,711]","","null"
"","teacher","62","416477","0.0-23.0-2.0","1532720531591","8-282","1271","","","","false","456.87","720.77","165.39","763.49","[602,518]","[69,583]","null"
"","teacher","63","422925","0.0-23.0-3.0","1532720531591","8-282","2222","","","","false","655.41","756.43","507.78","719.07","[728,573],[703,628]","","null"
"","teacher","64","427077","0.0-23.0-4.0","1532720531591","8-282","2054","","","","false","261.21","470.69","750.53","847.73","[457,827]","[491,812]","null"
"","check_point_button","65","429133","0.0-24.0","1532720531591","8-282","2055","","<p><font size='25'>¡FELICITACIONES! <br><br> TERMINASTE EL NIVEL 9</font></p>","0","","","","","","","",""
"","teacher","66","432278","0.0-25.0-0.0","1532720531591","8-282","1822","","","","false","216.14","445.64","372.28","571.08","[389,523]","[485,606]","null"
"","teacher","67","434798","0.0-25.0-1.0","1532720531591","8-282","1270","","","","false","548.16","645.36","149.33","850.74","[598,582],[596,646]","","null"
"","teacher","68","439134","0.0-25.0-2.0","1532720531591","8-282","1542","","","","false","612.81","710.01","682.48","779.68","","[487,754],[214,728]","null"
"","teacher","69","444534","0.0-25.0-3.0","1532720531591","8-282","3398","","","","false","516.58","674.12","215.83","668.49","[644,487],[661,487]","","null"
"","teacher","70","447486","0.0-25.0-4.0","1532720531591","8-282","1150","","","","false","455.09","707.55","115.59","629.75","","[517,653],[489,757]","null"
"","check_point_button","71","479745","0.0-26.0","1532720531591","8-282","32259","","<p align='center' style='font-size:30px;' > COMPLETASTE TODOS LOS NIVELES  <br><br> ¡FELICITACIONES!<br><br> PRESIONA CUALQUIER TECLA PARA TERMINAR</p>","0","","","","","","","",""
