"success","trial_type","trial_index","time_elapsed","internal_node_id","start_time","Id","rt","responses","stimulus","button_pressed","Prueba","X_left","X_right","Y_top","Y_bottom","Circles","Crosses","Consistency","key_press"
"true","fullscreen","0","3332","0.0-0.0","1528572091562","4-9","","","","","","","","","","","","",""
"","survey-text","1","14627","0.0-1.0","1528572091562","4-9","11291","{""Q0"":""4-9""}","","","","","","","","","","",""
"","my_image_button","2","23699","0.0-2.0-0.0","1528572091562","4-9","9069","","img/caja.png","0","","","","","","","","",""
"","my_image_button","3","35130","0.0-2.0-1.0","1528572091562","4-9","11431","","img/caja_con_ejemplos.png","0","","","","","","","","",""
"","my_image_button","4","46946","0.0-2.0-2.0","1528572091562","4-9","11815","","","0","","","","","","","","",""
"","learner","5","94719","0.0-3.0-0.0","1528572091562","4-9","47765","","","","true","317","556","441","604","[319.69,591.6],[523.27,450.08]","","true","null"
"","learner","6","105118","0.0-3.0-1.0","1528572091562","4-9","10396","","","","true","374","492","320","411","[445.34,358.46]","[368.26,438.53]","true","null"
"","learner","7","135400","0.0-3.0-2.0","1528572091562","4-9","30282","","","","true","333","529","370","512","[507.92,383.28],[337.98,504.16]","","true","null"
"","learner","8","170816","0.0-3.0-3.0","1528572091562","4-9","35415","","","","true","582","669","287","519","[579.82,497.23],[589.88,363.76]","","false","null"
"","check_point_button","9","194563","0.0-4.0","1528572091562","4-9","23745","","<p><font size='25px'>ENTONCES, ¿QUÉ TENÉS QUE HACER? </font></p>","0","","","","","","","","",""
"","html-button-response","10","196211","0.0-5.0","1528572091562","4-9","1646","","<p align='center' style='font-size:25px;' > HAY 10 NIVELES <br> ¿ESTÁS LISTO/A PARA EMPEZAR? </p>","0","","","","","","","","",""
"","learner","11","217418","0.0-6.0-0.0","1528572091562","4-9","21202","","","","false","358","479","262","490","[479.52,271.18],[381.17,421.68]","","false","null"
"","learner","12","226690","0.0-6.0-1.0","1528572091562","4-9","9270","","","","false","461","635","521","766","[482.04,675.08],[463.17,523.43]","","true","null"
"","learner","13","232683","0.0-6.0-2.0","1528572091562","4-9","5991","","","","false","568","811","386","636","[693.28,527.45],[572.19,382.65]","","false","null"
"","learner","14","241587","0.0-6.0-3.0","1528572091562","4-9","8901","","","","false","462","568","559","654","[485.05,581.02]","[566.97,477.52]","true","null"
"","learner","15","249578","0.0-6.0-4.0","1528572091562","4-9","7989","","","","false","452","556","338","361","[546.92,355.23]","[570.87,491.35]","true","null"
"","check_point_button","16","251530","0.0-7.0","1528572091562","4-9","1950","","<p><font size='25'>¡FELICITACIONES! <br><br> TERMINASTE EL NIVEL 1</font></p>","0","","","","","","","","",""
"","learner","17","257197","0.0-8.0-0.0","1528572091562","4-9","5665","","","","false","565","772","449","770","[634.98,599.87],[558.71,451.1]","","false","null"
"","learner","18","269493","0.0-8.0-1.0","1528572091562","4-9","12295","","","","false","549","648","273","422","","[554.23,243.57],[599.21,446.38]","true","null"
"","learner","19","275157","0.0-8.0-2.0","1528572091562","4-9","5662","","","","false","395","518","596","780","","[545.47,646.38],[332.61,569.87]","true","null"
"","learner","20","280093","0.0-8.0-3.0","1528572091562","4-9","4935","","","","false","606","831","614","729","[654.5,642.17]","[775.33,562.16]","true","null"
"","learner","21","285469","0.0-8.0-4.0","1528572091562","4-9","5374","","","","false","315","559","333","385","","[329.64,408.83],[367.29,278.23]","true","null"
"","check_point_button","22","288125","0.0-9.0","1528572091562","4-9","2656","","<p><font size='25'>¡FELICITACIONES! <br><br> TERMINASTE EL NIVEL 2</font></p>","0","","","","","","","","",""
"","learner","23","292045","0.0-10.0-0.0","1528572091562","4-9","3918","","","","false","642","850","393","504","[668.98,416.73]","[585.19,335.4]","true","null"
"","learner","24","296157","0.0-10.0-1.0","1528572091562","4-9","4110","","","","false","506","584","447","745","[550.4,682.12],[562.45,474.11]","","true","null"
"","learner","25","301046","0.0-10.0-2.0","1528572091562","4-9","4887","","","","false","517","785","413","591","","[488.39,479.09],[751.21,398.47]","true","null"
"","learner","26","306085","0.0-10.0-3.0","1528572091562","4-9","5038","","","","false","587","710","283","704","[598.49,301.35],[648.39,585.38]","","true","null"
"","learner","27","309934","0.0-10.0-4.0","1528572091562","4-9","3847","","","","false","296","637","494","868","","[683.38,746.57],[258.77,482.67]","true","null"
"","check_point_button","28","312165","0.0-11.0","1528572091562","4-9","2231","","<p><font size='25'>¡FELICITACIONES! <br><br> TERMINASTE EL NIVEL 3</font></p>","0","","","","","","","","",""
"","learner","29","323271","0.0-12.0-0.0","1528572091562","4-9","11104","","","","false","652","860","355","455","[670.39,443.93],[747.38,384.56]","","true","null"
"","learner","30","327583","0.0-12.0-1.0","1528572091562","4-9","4310","","","","false","420","502","736","862","","[524.47,768.83],[393.39,719.09]","true","null"
"","learner","31","337960","0.0-12.0-2.0","1528572091562","4-9","10374","","","","false","503","669","504","603","[512.91,548.72]","[580.68,769.41]","true","null"
"","learner","32","349847","0.0-12.0-3.0","1528572091562","4-9","11887","","","","false","336","412","362","592","[341.88,379.79],[381.73,560.74]","","true","null"
"","learner","33","391475","0.0-12.0-4.0","1528572091562","4-9","41626","","","","false","471","925","520","637","","[416.77,726.11],[581.26,379.47]","true","null"
"","check_point_button","34","393755","0.0-13.0","1528572091562","4-9","2280","","<p><font size='25'>¡FELICITACIONES! <br><br> TERMINASTE EL NIVEL 4</font></p>","0","","","","","","","","",""
"","learner","35","397946","0.0-14.0-0.0","1528572091562","4-9","4189","","","","false","397","947","541","696","","[339.11,646.81],[739.56,462.1]","true","null"
"","learner","36","402386","0.0-14.0-1.0","1528572091562","4-9","4438","","","","false","281","447","459","662","[375.44,579.79],[438.48,489.31]","","true","null"
"","learner","37","406555","0.0-14.0-2.0","1528572091562","4-9","4167","","","","false","342","555","599","719","[352.78,629.77]","[357.95,760.66]","true","null"
"","learner","38","414435","0.0-14.0-3.0","1528572091562","4-9","7878","","","","false","394","548","606","660","[414.64,622.03]","[508.51,486.65]","true","null"
"","learner","39","420563","0.0-14.0-4.0","1528572091562","4-9","6126","","","","false","385","657","404","593","","[639.72,394.84],[314.38,551.73]","true","null"
"","check_point_button","40","424299","0.0-15.0","1528572091562","4-9","3735","","<p><font size='25'>¡FELICITACIONES! <br><br> TERMINASTE EL NIVEL 5</font></p>","0","","","","","","","","",""
"","html-button-response","41","426266","0.0-16.0","1528572091562","4-9","1966","","<p align='center' style='font-size:25px;' > ¡ACORDATE DE QUE ALGUIEN TE DEJÓ ESTAS PISTAS PARA QUE ENCUENTRES LA CAJA! </p>","0","","","","","","","","",""
"","learner","42","429892","0.0-17.0-0.0","1528572091562","4-9","3622","","","","false","506","642","350","489","[518.97,400.71]","[379.77,519.84]","true","null"
"","learner","43","433835","0.0-17.0-1.0","1528572091562","4-9","3942","","","","false","612","683","467","651","","[716.3,597.52],[564,449.83]","true","null"
"","learner","44","438059","0.0-17.0-2.0","1528572091562","4-9","4222","","","","false","298","775","399","656","","[262.79,583.73],[709.78,312.14]","true","null"
"","learner","45","441619","0.0-17.0-3.0","1528572091562","4-9","3559","","","","false","510","626","525","661","[545.27,602.15]","[524.18,427.81]","true","null"
"","learner","46","445771","0.0-17.0-4.0","1528572091562","4-9","4151","","","","false","475","587","426","661","[481.2,450.43],[527.64,575.1]","","true","null"
"","check_point_button","47","448366","0.0-18.0","1528572091562","4-9","2593","","<p><font size='25'>¡FELICITACIONES! <br><br> TERMINASTE EL NIVEL 6</font></p>","0","","","","","","","","",""
"","learner","48","451924","0.0-19.0-0.0","1528572091562","4-9","3557","","","","false","398","582","548","782","[419.58,661.25]","[710.01,444.49]","true","null"
"","learner","49","455341","0.0-19.0-1.0","1528572091562","4-9","3414","","","","false","355","651","614","814","[492.46,693.8],[377.28,656.15]","","true","null"
"","learner","50","460596","0.0-19.0-2.0","1528572091562","4-9","5254","","","","false","459","755","618","742","","[401.46,737.1],[706.12,552.95]","true","null"
"","learner","51","465805","0.0-19.0-3.0","1528572091562","4-9","5206","","","","false","420","689","237","710","[681.28,299.39],[593.1,512.43]","","true","null"
"","learner","52","470069","0.0-19.0-4.0","1528572091562","4-9","4262","","","","false","274","424","399","868","[419.15,427.82],[386.4,755.51]","","true","null"
"","check_point_button","53","473157","0.0-20.0","1528572091562","4-9","3087","","<p><font size='25'>¡FELICITACIONES! <br><br> TERMINASTE EL NIVEL 7</font></p>","0","","","","","","","","",""
"","learner","54","478669","0.0-21.0-0.0","1528572091562","4-9","5509","","","","false","463","836","557","689","","[481.21,482.8],[485.47,729.2]","true","null"
"","learner","55","481973","0.0-21.0-1.0","1528572091562","4-9","3302","","","","false","384","679","464","687","[421.88,500.72]","[708.75,320.01]","true","null"
"","learner","56","485805","0.0-21.0-2.0","1528572091562","4-9","3831","","","","false","658","916","441","529","[721.76,509.16]","[569.72,643.88]","true","null"
"","learner","57","493109","0.0-21.0-3.0","1528572091562","4-9","7302","","","","false","393","481","629","805","[406.33,733.99],[467.27,650.08]","","true","null"
"","learner","58","498117","0.0-21.0-4.0","1528572091562","4-9","5007","","","","false","511","750","555","733","","[704.3,534.91],[480.5,672.24]","true","null"
"","check_point_button","59","499661","0.0-22.0","1528572091562","4-9","1542","","<p><font size='25'>¡FELICITACIONES! <br><br> TERMINASTE EL NIVEL 8</font></p>","0","","","","","","","","",""
"","learner","60","503237","0.0-23.0-0.0","1528572091562","4-9","3575","","","","false","424","764","562","839","[611.56,705.28]","[391.17,542.41]","true","null"
"","learner","61","506780","0.0-23.0-1.0","1528572091562","4-9","3541","","","","false","433","557","337","507","[453.82,395.91]","[696.69,317.99]","true","null"
"","learner","62","513767","0.0-23.0-2.0","1528572091562","4-9","6984","","","","false","556","679","283","754","","[504.04,620.11],[694.3,297.3]","true","null"
"","learner","63","520199","0.0-23.0-3.0","1528572091562","4-9","6430","","","","false","568","715","322","487","","[742.47,411.84],[515.3,339.56]","true","null"
"","learner","64","530024","0.0-23.0-4.0","1528572091562","4-9","9822","","","","false","239","609","407","720","","[645.46,482.84],[312.88,752.17]","true","null"
"","check_point_button","65","533384","0.0-24.0","1528572091562","4-9","3359","","<p><font size='25'>¡FELICITACIONES! <br><br> TERMINASTE EL NIVEL 9</font></p>","0","","","","","","","","",""
"","learner","66","542048","0.0-25.0-0.0","1528572091562","4-9","8663","","","","false","508","524","968","971","[756.9,591.57],[659,693.02]","","true","null"
"","learner","67","551151","0.0-25.0-1.0","1528572091562","4-9","9102","","","","false","569","817","491","650","","[600.11,419.44],[590.96,659.36]","true","null"
"","learner","68","554464","0.0-25.0-2.0","1528572091562","4-9","3310","","","","false","481","563","586","752","[527.47,655.07]","[704.66,513.89]","true","null"
"","learner","69","560703","0.0-25.0-3.0","1528572091562","4-9","6238","","","","false","399","510","377","649","[460.09,493.93]","[537.91,350.96]","true","null"
"","learner","70","563839","0.0-25.0-4.0","1528572091562","4-9","3134","","","","false","467","544","509","785","[530.11,641.69]","[709.08,443.78]","true","null"
"","check_point_button","71","572651","0.0-26.0","1528572091562","4-9","8810","","<p align='center' style='font-size:30px;' > COMPLETASTE TODOS LOS NIVELES  <br><br> ¡FELICITACIONES!<br><br> PRESIONA CUALQUIER TECLA PARA TERMINAR</p>","0","","","","","","","","",""
