"success","trial_type","trial_index","time_elapsed","internal_node_id","start_time","Id","rt","responses","stimulus","button_pressed","Prueba","X_left","X_right","Y_top","Y_bottom","Circles","Crosses","Consistency","key_press"
"true","fullscreen","0","2733","0.0-0.0","1528654958816","55-7","","","","","","","","","","","","",""
"","survey-text","1","11493","0.0-1.0","1528654958816","55-7","8758","{""Q0"":""55-7""}","","","","","","","","","","",""
"","my_image_button","2","27878","0.0-2.0-0.0","1528654958816","55-7","16382","","img/caja.png","0","","","","","","","","",""
"","my_image_button","3","53982","0.0-2.0-1.0","1528654958816","55-7","26102","","img/caja_con_ejemplos.png","0","","","","","","","","",""
"","my_image_button","4","60504","0.0-2.0-2.0","1528654958816","55-7","6521","","","0","","","","","","","","",""
"","learner","5","101145","0.0-3.0-0.0","1528654958816","55-7","40637","","","","true","576","745","296","406","[598.31,309.06],[709.22,375.53]","","true","null"
"","learner","6","114881","0.0-3.0-1.0","1528654958816","55-7","13733","","","","true","401","452","418","504","[426.62,462.56]","[409.14,249.22]","true","null"
"","learner","7","134747","0.0-3.0-2.0","1528654958816","55-7","19865","","","","true","367","495","299","428","","[225.78,335.9],[307.2,236.5]","true","null"
"","learner","8","143147","0.0-3.0-3.0","1528654958816","55-7","8399","","","","true","368","512","183","280","[412.58,221.87]","[604.73,299.05]","true","null"
"","check_point_button","9","156467","0.0-4.0","1528654958816","55-7","13319","","<p><font size='25px'>ENTONCES, ¿QUÉ TENÉS QUE HACER? </font></p>","0","","","","","","","","",""
"","html-button-response","10","167244","0.0-5.0","1528654958816","55-7","10774","","<p align='center' style='font-size:25px;' > HAY 10 NIVELES <br> ¿ESTÁS LISTO/A PARA EMPEZAR? </p>","0","","","","","","","","",""
"","learner","11","174708","0.0-6.0-0.0","1528654958816","55-7","7460","","","","false","354","456","214","390","","[457,533.34],[548.21,472.57]","true","null"
"","learner","12","181340","0.0-6.0-1.0","1528654958816","55-7","6630","","","","false","498","606","643","721","","[714.22,613.35],[323.01,724.01]","true","null"
"","learner","13","189894","0.0-6.0-2.0","1528654958816","55-7","8553","","","","false","372","655","524","724","[612.28,669.97],[451.87,572.15]","","true","null"
"","learner","14","201278","0.0-6.0-3.0","1528654958816","55-7","11383","","","","false","516","689","649","748","","[453.17,645.41],[477.88,759.62]","true","null"
"","learner","15","207967","0.0-6.0-4.0","1528654958816","55-7","6686","","","","false","252","529","431","541","[352.74,482.33]","[549.71,586.47]","true","null"
"","check_point_button","16","210414","0.0-7.0","1528654958816","55-7","2445","","<p><font size='25'>¡FELICITACIONES! <br><br> TERMINASTE EL NIVEL 1</font></p>","0","","","","","","","","",""
"","learner","17","220926","0.0-8.0-0.0","1528654958816","55-7","10510","","","","false","490","604","488","654","","[541.44,447.55],[615.03,710.77]","true","null"
"","learner","18","252737","0.0-8.0-1.0","1528654958816","55-7","31808","","","","false","465","765","427","607","[631.14,514.1],[738.87,559.18]","","true","null"
"","learner","19","260617","0.0-8.0-2.0","1528654958816","55-7","7879","","","","false","406","532","437","631","","[265.19,428.09],[388.66,668.43]","true","null"
"","learner","20","270154","0.0-8.0-3.0","1528654958816","55-7","9534","","","","false","260","380","364","478","","[486.45,494.92],[488.23,767.95]","true","null"
"","learner","21","275442","0.0-8.0-4.0","1528654958816","55-7","5286","","","","false","167","470","503","659","[255.42,567.83]","[618.05,741.02]","true","null"
"","check_point_button","22","277330","0.0-9.0","1528654958816","55-7","1887","","<p><font size='25'>¡FELICITACIONES! <br><br> TERMINASTE EL NIVEL 2</font></p>","0","","","","","","","","",""
"","learner","23","284657","0.0-10.0-0.0","1528654958816","55-7","7326","","","","false","252","556","383","595","[499.16,566.06],[345.1,448.24]","","true","null"
"","learner","24","295354","0.0-10.0-1.0","1528654958816","55-7","10694","","","","false","527","664","224","354","","[687.26,452.51],[476.27,392.13]","true","null"
"","learner","25","308305","0.0-10.0-2.0","1528654958816","55-7","12950","","","","false","447","532","537","628","","[309.45,513.02],[476.3,215.84]","true","null"
"","learner","26","321195","0.0-10.0-3.0","1528654958816","55-7","12889","","","","false","530","535","973","973","[502.88,664.21]","[544.8,506.88]","true","null"
"","learner","27","327146","0.0-10.0-4.0","1528654958816","55-7","5949","","","","false","640","802","268","416","[709.65,340.58]","[530.74,272.54]","true","null"
"","check_point_button","28","329171","0.0-11.0","1528654958816","55-7","2023","","<p><font size='25'>¡FELICITACIONES! <br><br> TERMINASTE EL NIVEL 3</font></p>","0","","","","","","","","",""
"","learner","29","336900","0.0-12.0-0.0","1528654958816","55-7","7726","","","","false","235","383","311","414","","[446.48,371.97],[330.88,549.97]","true","null"
"","learner","30","344596","0.0-12.0-1.0","1528654958816","55-7","7695","","","","false","420","664","246","457","[560.6,358.87],[456.57,429.58]","","true","null"
"","learner","31","354820","0.0-12.0-2.0","1528654958816","55-7","10222","","","","false","261","521","349","576","[301.15,393.96],[424.86,555.07]","","true","null"
"","learner","32","365435","0.0-12.0-3.0","1528654958816","55-7","10612","","","","false","506","647","387","673","","[537.32,770.02],[415.73,270.65]","true","null"
"","learner","33","375358","0.0-12.0-4.0","1528654958816","55-7","9921","","","","false","587","680","625","689","[631.21,648.52]","[621.55,302.5]","true","null"
"","check_point_button","34","377541","0.0-13.0","1528654958816","55-7","2183","","<p><font size='25'>¡FELICITACIONES! <br><br> TERMINASTE EL NIVEL 4</font></p>","0","","","","","","","","",""
"","learner","35","386998","0.0-14.0-0.0","1528654958816","55-7","9455","","","","false","156","393","427","613","[362.43,555.83],[227.63,504.04]","","true","null"
"","learner","36","394454","0.0-14.0-1.0","1528654958816","55-7","7453","","","","false","441","562","973","1148","[514.26,422.69],[531.46,320.16]","","false","null"
"","learner","37","400997","0.0-14.0-2.0","1528654958816","55-7","6541","","","","false","407","545","436","676","","[759.7,702.56],[689.23,441.74]","true","null"
"","learner","38","409333","0.0-14.0-3.0","1528654958816","55-7","8334","","","","false","369","518","531","697","[434.8,625.69]","[630.36,440.12]","true","null"
"","learner","39","417470","0.0-14.0-4.0","1528654958816","55-7","8134","","","","false","624","756","432","625","[686.61,476.42],[670.86,582.88]","","true","null"
"","check_point_button","40","419902","0.0-15.0","1528654958816","55-7","2430","","<p><font size='25'>¡FELICITACIONES! <br><br> TERMINASTE EL NIVEL 5</font></p>","0","","","","","","","","",""
"","html-button-response","41","435018","0.0-16.0","1528654958816","55-7","15114","","<p align='center' style='font-size:25px;' > ¡ACORDATE DE QUE ALGUIEN TE DEJÓ ESTAS PISTAS PARA QUE ENCUENTRES LA CAJA! </p>","0","","","","","","","","",""
"","learner","42","443337","0.0-17.0-0.0","1528654958816","55-7","8316","","","","false","368","451","540","686","","[373.28,723.74],[495.04,660.23]","true","null"
"","learner","43","451297","0.0-17.0-1.0","1528654958816","55-7","7957","","","","false","359","576","304","472","","[435.13,244.92],[553.34,508.54]","true","null"
"","learner","44","463905","0.0-17.0-2.0","1528654958816","55-7","12606","","","","false","436","597","281","482","[545.43,287.58],[473.07,422.17]","","true","null"
"","learner","45","472465","0.0-17.0-3.0","1528654958816","55-7","8558","","","","false","503","679","504","628","","[739.52,498.42],[452.47,638.8]","true","null"
"","learner","46","483305","0.0-17.0-4.0","1528654958816","55-7","10838","","","","false","592","654","496","594","[632.54,540.92]","[454.93,675.07]","true","null"
"","check_point_button","47","485402","0.0-18.0","1528654958816","55-7","2096","","<p><font size='25'>¡FELICITACIONES! <br><br> TERMINASTE EL NIVEL 6</font></p>","0","","","","","","","","",""
"","learner","48","497037","0.0-19.0-0.0","1528654958816","55-7","11632","","","","false","365","578","448","666","[521.94,598.57],[419.11,511.07]","","true","null"
"","learner","49","503444","0.0-19.0-1.0","1528654958816","55-7","6406","","","","false","537","649","454","798","","[455.73,521.51],[685.13,771.56]","true","null"
"","learner","50","509092","0.0-19.0-2.0","1528654958816","55-7","5646","","","","false","191","395","437","726","[230.03,621.89],[377.62,514.79]","","true","null"
"","learner","51","515412","0.0-19.0-3.0","1528654958816","55-7","6319","","","","false","567","747","436","560","[597.25,534.65],[678.7,466.83]","","true","null"
"","learner","52","521140","0.0-19.0-4.0","1528654958816","55-7","5726","","","","false","626","825","388","464","","[666.74,326.13],[756.88,370.95]","true","null"
"","check_point_button","53","523597","0.0-20.0","1528654958816","55-7","2456","","<p><font size='25'>¡FELICITACIONES! <br><br> TERMINASTE EL NIVEL 7</font></p>","0","","","","","","","","",""
"","learner","54","530477","0.0-21.0-0.0","1528654958816","55-7","6878","","","","false","365","434","537","785","","[342.98,556.78],[315.9,724.41]","true","null"
"","learner","55","537685","0.0-21.0-1.0","1528654958816","55-7","7206","","","","false","323","429","372","557","","[469.01,398.63],[461.1,521.93]","true","null"
"","learner","56","545973","0.0-21.0-2.0","1528654958816","55-7","8284","","","","false","394","615","492","747","[434.64,607.79],[579.23,698.37]","","true","null"
"","learner","57","550981","0.0-21.0-3.0","1528654958816","55-7","5006","","","","false","378","489","507","670","[410.56,564.32]","[308.02,504.16]","true","null"
"","learner","58","558103","0.0-21.0-4.0","1528654958816","55-7","7121","","","","false","425","569","454","668","","[408.16,633.83],[574.75,426.85]","true","null"
"","check_point_button","59","561159","0.0-22.0","1528654958816","55-7","3055","","<p><font size='25'>¡FELICITACIONES! <br><br> TERMINASTE EL NIVEL 8</font></p>","0","","","","","","","","",""
"","learner","60","572223","0.0-23.0-0.0","1528654958816","55-7","11062","","","","false","325","499","440","803","[437.32,757.08],[342.53,496.88]","","true","null"
"","learner","61","580936","0.0-23.0-1.0","1528654958816","55-7","8710","","","","false","408","698","478","675","[661.39,502.7],[435.67,621.95]","","true","null"
"","learner","62","588000","0.0-23.0-2.0","1528654958816","55-7","7062","","","","false","454","579","536","720","","[626.17,661.22],[369.78,743.57]","true","null"
"","learner","63","595221","0.0-23.0-3.0","1528654958816","55-7","7219","","","","false","359","509","330","584","","[329.34,294.5],[382.18,681.01]","true","null"
"","learner","64","601496","0.0-23.0-4.0","1528654958816","55-7","6273","","","","false","402","507","297","490","","[386.28,465.48],[488.72,246.79]","true","null"
"","check_point_button","65","604808","0.0-24.0","1528654958816","55-7","3311","","<p><font size='25'>¡FELICITACIONES! <br><br> TERMINASTE EL NIVEL 9</font></p>","0","","","","","","","","",""
"","learner","66","612096","0.0-25.0-0.0","1528654958816","55-7","7286","","","","false","464","707","295","381","[495.02,332.96]","[549.54,580.11]","true","null"
"","learner","67","621498","0.0-25.0-1.0","1528654958816","55-7","9399","","","","false","500","662","605","682","[547.68,653.1]","[607.47,733.4]","true","null"
"","learner","68","629938","0.0-25.0-2.0","1528654958816","55-7","8439","","","","false","347","510","320","491","[426.72,413.06]","[605.46,319.85]","true","null"
"","learner","69","637307","0.0-25.0-3.0","1528654958816","55-7","7367","","","","false","496","599","441","740","[541.41,663.06],[529.7,491.64]","","true","null"
"","learner","70","644466","0.0-25.0-4.0","1528654958816","55-7","7158","","","","false","201","596","451","672","[254.78,526.95],[539,632.77]","","true","null"
"","check_point_button","71","665810","0.0-26.0","1528654958816","55-7","21343","","<p align='center' style='font-size:30px;' > COMPLETASTE TODOS LOS NIVELES  <br><br> ¡FELICITACIONES!<br><br> PRESIONA CUALQUIER TECLA PARA TERMINAR</p>","0","","","","","","","","",""
