"success","trial_type","trial_index","time_elapsed","internal_node_id","start_time","Id","rt","responses","stimulus","button_pressed","Prueba","X_left","X_right","Y_top","Y_bottom","Circles","Crosses","Consistency","key_press"
"true","fullscreen","0","2324","0.0-0.0","1532725187676","10-300","","","","","","","","","","","","",""
"","survey-text","1","6623","0.0-1.0","1532725187676","10-300","4296","{""Q0"":""10-300""}","","","","","","","","","","",""
"","my_image_button","2","20503","0.0-2.0-0.0","1532725187676","10-300","13878","","img/caja.png","0","","","","","","","","",""
"","my_image_button","3","34991","0.0-2.0-1.0","1532725187676","10-300","14486","","img/caja_con_ejemplos.png","0","","","","","","","","",""
"","my_image_button","4","45887","0.0-2.0-2.0","1532725187676","10-300","10896","","","0","","","","","","","","",""
"","learner","5","62962","0.0-3.0-0.0","1532725187676","10-300","17070","","","","true","192","416","665","762","[228.2,683.12],[379.11,724.04]","","true","null"
"","learner","6","78945","0.0-3.0-1.0","1532725187676","10-300","15980","","","","true","528","696","597","773","[671.87,759.82]","[525.6,556.19]","true","null"
"","learner","7","90393","0.0-3.0-2.0","1532725187676","10-300","11446","","","","true","239","450","324","612","","[332.69,639.91],[364.88,289.38]","true","null"
"","learner","8","97865","0.0-3.0-3.0","1532725187676","10-300","7471","","","","true","411","609","394","565","[494.68,465.6]","[611.27,608.06]","true","null"
"","check_point_button","9","113946","0.0-4.0","1532725187676","10-300","16079","","<p><font size='25px'>ENTONCES, ¿QUÉ TENÉS QUE HACER? </font></p>","0","","","","","","","","",""
"","html-button-response","10","129580","0.0-5.0","1532725187676","10-300","15634","","<p align='center' style='font-size:25px;' > HAY 10 NIVELES <br> ¿ESTÁS LISTO/A PARA EMPEZAR? </p>","0","","","","","","","","",""
"","learner","11","138604","0.0-6.0-0.0","1532725187676","10-300","9021","","","","false","585","725","302","403","[605.2,378.8],[690.31,316.15]","","true","null"
"","learner","12","144084","0.0-6.0-1.0","1532725187676","10-300","5478","","","","false","375","498","227","354","[439.52,286.16]","[366.51,194.51]","true","null"
"","learner","13","150253","0.0-6.0-2.0","1532725187676","10-300","6166","","","","false","482","671","315","482","","[598.18,514.4],[483.05,263.47]","true","null"
"","learner","14","155533","0.0-6.0-3.0","1532725187676","10-300","5278","","","","false","369","526","372","557","[444.51,449.12]","[499.58,596.56]","true","null"
"","learner","15","159828","0.0-6.0-4.0","1532725187676","10-300","4294","","","","false","448","635","360","528","","[508.64,303.55],[459.7,547.6]","true","null"
"","check_point_button","16","169796","0.0-7.0","1532725187676","10-300","9967","","<p><font size='25'>¡FELICITACIONES! <br><br> TERMINASTE EL NIVEL 1</font></p>","0","","","","","","","","",""
"","learner","17","183685","0.0-8.0-0.0","1532725187676","10-300","13887","","","","false","308","485","466","637","[435.36,595.85],[330.87,492.82]","","true","null"
"","learner","18","191151","0.0-8.0-1.0","1532725187676","10-300","7465","","","","false","330","460","356","519","[369.12,477.87],[433.18,370.6]","","true","null"
"","learner","19","201825","0.0-8.0-2.0","1532725187676","10-300","10672","","","","false","418","632","513","631","[455.09,546.21],[592.44,591.53]","","true","null"
"","learner","20","205464","0.0-8.0-3.0","1532725187676","10-300","3638","","","","false","470","624","521","614","[478.89,538.39],[586.54,578.49]","","true","null"
"","learner","21","210479","0.0-8.0-4.0","1532725187676","10-300","5015","","","","false","637","807","256","425","","[651.82,221.1],[768.63,455.9]","true","null"
"","check_point_button","22","218119","0.0-9.0","1532725187676","10-300","7640","","<p><font size='25'>¡FELICITACIONES! <br><br> TERMINASTE EL NIVEL 2</font></p>","0","","","","","","","","",""
"","learner","23","224424","0.0-10.0-0.0","1532725187676","10-300","6303","","","","false","569","686","531","640","","[655.21,651.52],[583.64,508.16]","true","null"
"","learner","24","244000","0.0-10.0-1.0","1532725187676","10-300","19575","","","","false","439","615","522","727","[481.47,709.94],[577.01,531.69]","","true","null"
"","learner","25","251186","0.0-10.0-2.0","1532725187676","10-300","7184","","","","false","449","631","518","742","[567.81,673.09]","[425.85,485.45]","true","null"
"","learner","26","259954","0.0-10.0-3.0","1532725187676","10-300","8767","","","","false","411","695","512","698","","[320.89,679.1],[681.84,392.68]","true","null"
"","learner","27","265658","0.0-10.0-4.0","1532725187676","10-300","5703","","","","false","580","740","224","391","","[549.25,257.37],[763.14,390.73]","true","null"
"","check_point_button","28","269210","0.0-11.0","1532725187676","10-300","3551","","<p><font size='25'>¡FELICITACIONES! <br><br> TERMINASTE EL NIVEL 3</font></p>","0","","","","","","","","",""
"","learner","29","273506","0.0-12.0-0.0","1532725187676","10-300","4295","","","","false","254","430","464","591","[277.27,478.59],[397.79,558.79]","","true","null"
"","learner","30","277634","0.0-12.0-1.0","1532725187676","10-300","4126","","","","false","523","713","335","453","[551.14,357.5],[670.34,422.1]","","true","null"
"","learner","31","284658","0.0-12.0-2.0","1532725187676","10-300","7022","","","","false","677","758","305","581","[720.24,352.92]","[733.66,693.96]","true","null"
"","learner","32","289979","0.0-12.0-3.0","1532725187676","10-300","5319","","","","false","492","639","442","548","","[750.05,580.97],[426.21,377.02]","true","null"
"","learner","33","300346","0.0-12.0-4.0","1532725187676","10-300","10366","","","","false","555","709","581","653","","[517.38,642.64],[699.86,545.66]","true","null"
"","check_point_button","34","303707","0.0-13.0","1532725187676","10-300","3360","","<p><font size='25'>¡FELICITACIONES! <br><br> TERMINASTE EL NIVEL 4</font></p>","0","","","","","","","","",""
"","learner","35","310546","0.0-14.0-0.0","1532725187676","10-300","6838","","","","false","505","678","372","546","[554.35,464.94]","[721.68,317.36]","true","null"
"","learner","36","314316","0.0-14.0-1.0","1532725187676","10-300","3768","","","","false","514","655","418","733","[570.02,469.25]","[513.26,774.69]","true","null"
"","learner","37","320205","0.0-14.0-2.0","1532725187676","10-300","5887","","","","false","401","517","571","779","[465.09,719.9]","[410.14,513.76]","true","null"
"","learner","38","323957","0.0-14.0-3.0","1532725187676","10-300","3750","","","","false","542","608","327","660","","[458.1,717.6],[594.08,244.62]","true","null"
"","learner","39","327181","0.0-14.0-4.0","1532725187676","10-300","3223","","","","false","756","790","367","537","","[759.44,711.46],[765.71,279.13]","true","null"
"","check_point_button","40","329973","0.0-15.0","1532725187676","10-300","2792","","<p><font size='25'>¡FELICITACIONES! <br><br> TERMINASTE EL NIVEL 5</font></p>","0","","","","","","","","",""
"","html-button-response","41","365190","0.0-16.0","1532725187676","10-300","35216","","<p align='center' style='font-size:25px;' > ¡ACORDATE DE QUE ALGUIEN TE DEJÓ ESTAS PISTAS PARA QUE ENCUENTRES LA CAJA! </p>","0","","","","","","","","",""
"","learner","42","369398","0.0-17.0-0.0","1532725187676","10-300","4206","","","","false","590","642","478","546","","[663.74,549.35],[568.82,453.4]","true","null"
"","learner","43","373545","0.0-17.0-1.0","1532725187676","10-300","4145","","","","false","257","366","239","515","","[283.06,199.75],[225.9,731.91]","true","null"
"","learner","44","391328","0.0-17.0-2.0","1532725187676","10-300","17783","","","","false","389","527","584","768","[485.97,604.92],[424.23,744.78]","","true","null"
"","learner","45","394601","0.0-17.0-3.0","1532725187676","10-300","3271","","","","false","323","582","407","574","[377.51,444.93]","[548.58,653.6]","true","null"
"","learner","46","398121","0.0-17.0-4.0","1532725187676","10-300","3519","","","","false","458","710","346","535","[468.33,364.51],[690.99,493.75]","","true","null"
"","check_point_button","47","399618","0.0-18.0","1532725187676","10-300","1496","","<p><font size='25'>¡FELICITACIONES! <br><br> TERMINASTE EL NIVEL 6</font></p>","0","","","","","","","","",""
"","learner","48","403881","0.0-19.0-0.0","1532725187676","10-300","4262","","","","false","286","405","244","424","[347.9,264.43]","[227.1,488.26]","true","null"
"","learner","49","409321","0.0-19.0-1.0","1532725187676","10-300","5438","","","","false","502","636","429","770","[567.06,706.91]","[639.4,345.47]","true","null"
"","learner","50","412865","0.0-19.0-2.0","1532725187676","10-300","3543","","","","false","375","562","562","681","[515.23,654.19],[395.64,565.08]","","true","null"
"","learner","51","417642","0.0-19.0-3.0","1532725187676","10-300","4776","","","","false","595","679","182","307","[620.28,244]","[703.78,352.79]","true","null"
"","learner","52","422809","0.0-19.0-4.0","1532725187676","10-300","5167","","","","false","518","608","489","590","[571.02,527.16]","[741.6,453.66]","true","null"
"","check_point_button","53","424425","0.0-20.0","1532725187676","10-300","1615","","<p><font size='25'>¡FELICITACIONES! <br><br> TERMINASTE EL NIVEL 7</font></p>","0","","","","","","","","",""
"","learner","54","429113","0.0-21.0-0.0","1532725187676","10-300","4687","","","","false","542","667","605","717","","[512.73,548.47],[734.88,710.42]","true","null"
"","learner","55","436708","0.0-21.0-1.0","1532725187676","10-300","7592","","","","false","416","555","571","745","[472.06,597.56]","[367.76,755.97]","true","null"
"","learner","56","441388","0.0-21.0-2.0","1532725187676","10-300","4679","","","","false","506","673","493","643","","[449.23,508.08],[692.02,628.97]","true","null"
"","learner","57","447716","0.0-21.0-3.0","1532725187676","10-300","6327","","","","false","378","588","634","849","[449.88,758.45]","[593.61,491.33]","true","null"
"","learner","58","451589","0.0-21.0-4.0","1532725187676","10-300","3871","","","","false","613","808","559","726","[632.4,612.36],[749.36,677.81]","","true","null"
"","check_point_button","59","453812","0.0-22.0","1532725187676","10-300","2223","","<p><font size='25'>¡FELICITACIONES! <br><br> TERMINASTE EL NIVEL 8</font></p>","0","","","","","","","","",""
"","learner","60","460635","0.0-23.0-0.0","1532725187676","10-300","6820","","","","false","244","606","267","405","[275.83,370.96],[564.68,284.09]","","true","null"
"","learner","61","465683","0.0-23.0-1.0","1532725187676","10-300","5047","","","","false","398","600","440","767","[429.29,443.39],[477.71,647.02]","","true","null"
"","learner","62","469428","0.0-23.0-2.0","1532725187676","10-300","3743","","","","false","483","582","407","480","","[443.23,365.67],[635.48,472.22]","true","null"
"","learner","63","475435","0.0-23.0-3.0","1532725187676","10-300","6006","","","","false","242","401","300","541","[366.36,519.87],[282.99,330.36]","","true","null"
"","learner","64","478572","0.0-23.0-4.0","1532725187676","10-300","3135","","","","false","347","449","650","779","[393.23,712.48]","[279.89,517.73]","true","null"
"","check_point_button","65","480323","0.0-24.0","1532725187676","10-300","1751","","<p><font size='25'>¡FELICITACIONES! <br><br> TERMINASTE EL NIVEL 9</font></p>","0","","","","","","","","",""
"","learner","66","486148","0.0-25.0-0.0","1532725187676","10-300","5823","","","","false","399","695","434","612","[677.47,479.4],[452.73,539.65]","","true","null"
"","learner","67","489691","0.0-25.0-1.0","1532725187676","10-300","3542","","","","false","490","657","299","450","","[601.04,480.21],[476.51,208.12]","true","null"
"","learner","68","492987","0.0-25.0-2.0","1532725187676","10-300","3294","","","","false","562","695","484","638","[651.01,574.51],[567.02,495.81]","","true","null"
"","learner","69","496966","0.0-25.0-3.0","1532725187676","10-300","3976","","","","false","568","669","460","570","[595.81,482.73]","[683.28,565.68]","true","null"
"","learner","70","502517","0.0-25.0-4.0","1532725187676","10-300","5550","","","","false","528","571","353","612","","[601.88,293.71],[380.52,737.88]","true","null"
"","check_point_button","71","584523","0.0-26.0","1532725187676","10-300","82003","","<p align='center' style='font-size:30px;' > COMPLETASTE TODOS LOS NIVELES  <br><br> ¡FELICITACIONES!<br><br> PRESIONA CUALQUIER TECLA PARA TERMINAR</p>","0","","","","","","","","",""
