"success","trial_type","trial_index","time_elapsed","internal_node_id","start_time","Id","rt","responses","stimulus","button_pressed","Prueba","X_left","X_right","Y_top","Y_bottom","Circles","Crosses","Consistency","key_press"
"true","fullscreen","0","2168","0.0-0.0","1532714826936","13-264","","","","","","","","","","","","",""
"","survey-text","1","11141","0.0-1.0","1532714826936","13-264","8971","{""Q0"":""13-264""}","","","","","","","","","","",""
"","my_image_button","2","27989","0.0-2.0-0.0","1532714826936","13-264","16847","","img/caja.png","0","","","","","","","","",""
"","my_image_button","3","44612","0.0-2.0-1.0","1532714826936","13-264","16622","","img/caja_con_ejemplos.png","0","","","","","","","","",""
"","my_image_button","4","56116","0.0-2.0-2.0","1532714826936","13-264","11503","","","0","","","","","","","","",""
"","learner","5","74431","0.0-3.0-0.0","1532714826936","13-264","18310","","","","true","225","363","199","349","[253.99,332.96],[348.65,209.6]","","true","null"
"","learner","6","86143","0.0-3.0-1.0","1532714826936","13-264","11709","","","","true","388","454","567","698","[440.51,575.22]","[399.14,718.05]","true","null"
"","learner","7","93318","0.0-3.0-2.0","1532714826936","13-264","7174","","","","true","329","537","574","701","","[549.44,604.51],[378.89,726.36]","true","null"
"","learner","8","105983","0.0-3.0-3.0","1532714826936","13-264","12662","","","","true","285","478","246","528","[341.23,511.68]","[481.99,220.07]","true","null"
"","check_point_button","9","128306","0.0-4.0","1532714826936","13-264","22322","","<p><font size='25px'>ENTONCES, ¿QUÉ TENÉS QUE HACER? </font></p>","0","","","","","","","","",""
"","html-button-response","10","142643","0.0-5.0","1532714826936","13-264","14336","","<p align='center' style='font-size:25px;' > HAY 10 NIVELES <br> ¿ESTÁS LISTO/A PARA EMPEZAR? </p>","0","","","","","","","","",""
"","learner","11","149610","0.0-6.0-0.0","1532714826936","13-264","6966","","","","false","567","785","376","511","","[765.1,534.99],[527.78,400.39]","true","null"
"","learner","12","156137","0.0-6.0-1.0","1532714826936","13-264","6525","","","","false","467","626","218","497","","[493.38,517.65],[639.42,230.05]","true","null"
"","learner","13","163169","0.0-6.0-2.0","1532714826936","13-264","7030","","","","false","516","581","971","1103","[458.34,395.03],[419.75,283.65]","","false","null"
"","learner","14","169946","0.0-6.0-3.0","1532714826936","13-264","6775","","","","false","264","506","399","609","","[266.99,371.15],[526.38,602.2]","true","null"
"","learner","15","183058","0.0-6.0-4.0","1532714826936","13-264","13110","","","","false","531","634","563","761","[619.2,571.66]","[553.7,773.62]","true","null"
"","check_point_button","16","190028","0.0-7.0","1532714826936","13-264","6967","","<p><font size='25'>¡FELICITACIONES! <br><br> TERMINASTE EL NIVEL 1</font></p>","0","","","","","","","","",""
"","learner","17","200035","0.0-8.0-0.0","1532714826936","13-264","10006","","","","false","405","559","402","500","[542.62,415.23],[435.76,478.17]","","true","null"
"","learner","18","204372","0.0-8.0-1.0","1532714826936","13-264","4335","","","","false","424","556","474","579","","[444.33,603.06],[576.74,474.7]","true","null"
"","learner","19","213853","0.0-8.0-2.0","1532714826936","13-264","9479","","","","false","718","956","612","770","[520.89,598.38],[685.47,475.19]","","false","null"
"","learner","20","220580","0.0-8.0-3.0","1532714826936","13-264","6727","","","","false","570","688","419","666","","[638.08,392.15],[704.9,658.69]","true","null"
"","learner","21","226684","0.0-8.0-4.0","1532714826936","13-264","6103","","","","false","594","757","518","680","[628.33,664.97],[734.14,530.33]","","true","null"
"","check_point_button","22","228941","0.0-9.0","1532714826936","13-264","2257","","<p><font size='25'>¡FELICITACIONES! <br><br> TERMINASTE EL NIVEL 2</font></p>","0","","","","","","","","",""
"","learner","23","233868","0.0-10.0-0.0","1532714826936","13-264","4924","","","","false","549","620","505","633","[603.22,618.36],[561.29,519.53]","","true","null"
"","learner","24","242157","0.0-10.0-1.0","1532714826936","13-264","8286","","","","false","365","641","432","596","[627.03,583.39],[382.62,441.61]","","true","null"
"","learner","25","248053","0.0-10.0-2.0","1532714826936","13-264","5895","","","","false","579","740","350","559","[717.41,365.37],[624.43,539.51]","","true","null"
"","learner","26","252351","0.0-10.0-3.0","1532714826936","13-264","4297","","","","false","608","710","397","593","[688.58,575.2],[629.13,421.22]","","true","null"
"","learner","27","256783","0.0-10.0-4.0","1532714826936","13-264","4430","","","","false","405","585","541","630","[424.91,556.4],[568.36,614.22]","","true","null"
"","check_point_button","28","258200","0.0-11.0","1532714826936","13-264","1415","","<p><font size='25'>¡FELICITACIONES! <br><br> TERMINASTE EL NIVEL 3</font></p>","0","","","","","","","","",""
"","learner","29","262688","0.0-12.0-0.0","1532714826936","13-264","4487","","","","false","218","298","314","383","[280.43,368.13]","[198.46,309.25]","true","null"
"","learner","30","267511","0.0-12.0-1.0","1532714826936","13-264","4821","","","","false","409","581","653","791","","[407.34,628.85],[590.57,775.8]","true","null"
"","learner","31","272335","0.0-12.0-2.0","1532714826936","13-264","4823","","","","false","635","710","592","670","","[708.06,694.21],[728.65,596.05]","true","null"
"","learner","32","277680","0.0-12.0-3.0","1532714826936","13-264","5343","","","","false","505","766","307","528","[687.08,493.01],[518.41,322.09]","","true","null"
"","learner","33","282975","0.0-12.0-4.0","1532714826936","13-264","5295","","","","false","381","510","418","495","[494.87,481.47],[397.29,439.06]","","true","null"
"","check_point_button","34","284528","0.0-13.0","1532714826936","13-264","1551","","<p><font size='25'>¡FELICITACIONES! <br><br> TERMINASTE EL NIVEL 4</font></p>","0","","","","","","","","",""
"","learner","35","290567","0.0-14.0-0.0","1532714826936","13-264","6038","","","","false","385","551","496","707","","[391.2,466.1],[509.39,724.28]","true","null"
"","learner","36","295151","0.0-14.0-1.0","1532714826936","13-264","4583","","","","false","208","393","387","480","[274.81,421]","[412.36,465.8]","true","null"
"","learner","37","300263","0.0-14.0-2.0","1532714826936","13-264","5111","","","","false","548","619","234","398","[605.9,381.93],[571.59,251.91]","","true","null"
"","learner","38","304704","0.0-14.0-3.0","1532714826936","13-264","4439","","","","false","473","791","540","655","[492.83,556.6],[770.21,635.88]","","true","null"
"","learner","39","309351","0.0-14.0-4.0","1532714826936","13-264","4646","","","","false","557","681","586","649","[653.88,639.63]","[538.63,586.42]","true","null"
"","check_point_button","40","310378","0.0-15.0","1532714826936","13-264","1026","","<p><font size='25'>¡FELICITACIONES! <br><br> TERMINASTE EL NIVEL 5</font></p>","0","","","","","","","","",""
"","html-button-response","41","316762","0.0-16.0","1532714826936","13-264","6383","","<p align='center' style='font-size:25px;' > ¡ACORDATE DE QUE ALGUIEN TE DEJÓ ESTAS PISTAS PARA QUE ENCUENTRES LA CAJA! </p>","0","","","","","","","","",""
"","learner","42","321994","0.0-17.0-0.0","1532714826936","13-264","5230","","","","false","583","725","490","647","[713.49,634.33]","[566.26,475.55]","true","null"
"","learner","43","326897","0.0-17.0-1.0","1532714826936","13-264","4901","","","","false","626","725","295","443","[699.81,314.04]","[657.27,459.49]","true","null"
"","learner","44","332362","0.0-17.0-2.0","1532714826936","13-264","5464","","","","false","359","649","345","595","[633.32,582.1],[381.4,368.54]","","true","null"
"","learner","45","337866","0.0-17.0-3.0","1532714826936","13-264","5503","","","","false","397","562","503","598","[422.38,581.53]","[584.41,504.19]","true","null"
"","learner","46","342650","0.0-17.0-4.0","1532714826936","13-264","4783","","","","false","250","511","369","527","","[247.7,552.32],[501.63,343.74]","true","null"
"","check_point_button","47","344858","0.0-18.0","1532714826936","13-264","2207","","<p><font size='25'>¡FELICITACIONES! <br><br> TERMINASTE EL NIVEL 6</font></p>","0","","","","","","","","",""
"","learner","48","349346","0.0-19.0-0.0","1532714826936","13-264","4486","","","","false","485","578","493","629","[554.88,516.18]","[496.06,651.78]","true","null"
"","learner","49","353258","0.0-19.0-1.0","1532714826936","13-264","3911","","","","false","486","583","505","538","","[603.29,521.39],[493.99,567.45]","true","null"
"","learner","50","357978","0.0-19.0-2.0","1532714826936","13-264","4719","","","","false","318","465","264","368","","[288.83,270.13],[480.42,333.62]","true","null"
"","learner","51","363699","0.0-19.0-3.0","1532714826936","13-264","5718","","","","false","528","611","353","519","[541.65,367.77],[598.33,506.2]","","true","null"
"","learner","52","368795","0.0-19.0-4.0","1532714826936","13-264","5095","","","","false","603","736","442","653","[718.1,464.59]","[613.73,673.35]","true","null"
"","check_point_button","53","370541","0.0-20.0","1532714826936","13-264","1745","","<p><font size='25'>¡FELICITACIONES! <br><br> TERMINASTE EL NIVEL 7</font></p>","0","","","","","","","","",""
"","learner","54","374725","0.0-21.0-0.0","1532714826936","13-264","4183","","","","false","530","599","359","426","","[616.93,357.69],[541.99,451.96]","true","null"
"","learner","55","378437","0.0-21.0-1.0","1532714826936","13-264","3711","","","","false","510","690","497","733","","[611.86,750.23],[536.26,467.05]","true","null"
"","learner","56","382509","0.0-21.0-2.0","1532714826936","13-264","4072","","","","false","544","677","550","711","","[611.57,521.25],[703.54,730.52]","true","null"
"","learner","57","387077","0.0-21.0-3.0","1532714826936","13-264","4567","","","","false","452","628","387","469","[479.34,455.12],[610.92,403.79]","","true","null"
"","learner","58","391732","0.0-21.0-4.0","1532714826936","13-264","4654","","","","false","254","403","360","442","[369.79,383.24]","[218.91,448.59]","true","null"
"","check_point_button","59","393397","0.0-22.0","1532714826936","13-264","1664","","<p><font size='25'>¡FELICITACIONES! <br><br> TERMINASTE EL NIVEL 8</font></p>","0","","","","","","","","",""
"","learner","60","397677","0.0-23.0-0.0","1532714826936","13-264","4279","","","","false","465","609","275","608","","[633.36,608.57],[478.34,242.51]","true","null"
"","learner","61","401246","0.0-23.0-1.0","1532714826936","13-264","3568","","","","false","363","672","483","674","[635.19,647.33]","[327.25,483.76]","true","null"
"","learner","62","408628","0.0-23.0-2.0","1532714826936","13-264","7382","","","","false","620","755","322","414","[729.04,329.36],[641.69,402.53]","","true","null"
"","learner","63","417004","0.0-23.0-3.0","1532714826936","13-264","8374","","","","false","191","280","558","699","","[194.46,738.1],[286.77,544.21]","true","null"
"","learner","64","422309","0.0-23.0-4.0","1532714826936","13-264","5303","","","","false","523","655","438","543","[630.12,522.84]","[504.75,418.69]","true","null"
"","check_point_button","65","424421","0.0-24.0","1532714826936","13-264","2111","","<p><font size='25'>¡FELICITACIONES! <br><br> TERMINASTE EL NIVEL 9</font></p>","0","","","","","","","","",""
"","learner","66","429405","0.0-25.0-0.0","1532714826936","13-264","4982","","","","false","496","660","534","640","[517.95,547.27]","[694.23,636.59]","true","null"
"","learner","67","434623","0.0-25.0-1.0","1532714826936","13-264","5217","","","","false","500","644","567","745","","[535.08,765.87],[659.47,558.91]","true","null"
"","learner","68","442174","0.0-25.0-2.0","1532714826936","13-264","7550","","","","false","263","458","591","708","[435.23,688.64]","[240.82,598.6]","true","null"
"","learner","69","447776","0.0-25.0-3.0","1532714826936","13-264","5598","","","","false","634","758","328","655","[672.81,346.94]","[715.53,675.39]","true","null"
"","learner","70","451983","0.0-25.0-4.0","1532714826936","13-264","4206","","","","false","583","729","424","539","[632.64,447.64]","[743.19,545.23]","true","null"
"","check_point_button","71","531597","0.0-26.0","1532714826936","13-264","79612","","<p align='center' style='font-size:30px;' > COMPLETASTE TODOS LOS NIVELES  <br><br> ¡FELICITACIONES!<br><br> PRESIONA CUALQUIER TECLA PARA TERMINAR</p>","0","","","","","","","","",""
