"success","trial_type","trial_index","time_elapsed","internal_node_id","start_time","Id","rt","responses","stimulus","button_pressed","Prueba","X_left","X_right","Y_top","Y_bottom","Circles","Crosses","Consistency","key_press"
"true","fullscreen","0","2131","0.0-0.0","1532721508255","6-295","","","","","","","","","","","","",""
"","survey-text","1","7867","0.0-1.0","1532721508255","6-295","5732","{""Q0"":""6-295""}","","","","","","","","","","",""
"","my_image_button","2","23283","0.0-2.0-0.0","1532721508255","6-295","15415","","img/caja.png","0","","","","","","","","",""
"","my_image_button","3","41347","0.0-2.0-1.0","1532721508255","6-295","18063","","img/caja_con_ejemplos.png","0","","","","","","","","",""
"","my_image_button","4","49627","0.0-2.0-2.0","1532721508255","6-295","8279","","","0","","","","","","","","",""
"","learner","5","76982","0.0-3.0-0.0","1532721508255","6-295","27348","","","","true","466","527","593","759","[518.85,631.31],[462.42,757.26]","","false","null"
"","learner","6","99846","0.0-3.0-1.0","1532721508255","6-295","22863","","","","true","374","508","340","390","[503.49,334.42]","[375.57,384.95]","false","null"
"","learner","7","114007","0.0-3.0-2.0","1532721508255","6-295","14157","","","","true","260","635","310","484","","[628.5,307.29],[263.45,429.23]","false","null"
"","learner","8","127672","0.0-3.0-3.0","1532721508255","6-295","13664","","","","true","462","505","427","637","[502.38,635.88]","[470.11,430.41]","false","null"
"","check_point_button","9","173865","0.0-4.0","1532721508255","6-295","46192","","<p><font size='25px'>ENTONCES, ¿QUÉ TENÉS QUE HACER? </font></p>","0","","","","","","","","",""
"","html-button-response","10","186052","0.0-5.0","1532721508255","6-295","12186","","<p align='center' style='font-size:25px;' > HAY 10 NIVELES <br> ¿ESTÁS LISTO/A PARA EMPEZAR? </p>","0","","","","","","","","",""
"","learner","11","196580","0.0-6.0-0.0","1532721508255","6-295","10526","","","","false","320","481","540","669","[318.21,662.81]","[477.69,545.54]","false","null"
"","learner","12","207364","0.0-6.0-1.0","1532721508255","6-295","10783","","","","false","474","558","429","685","","[536.44,425.85],[477,676.82]","false","null"
"","learner","13","218252","0.0-6.0-2.0","1532721508255","6-295","10886","","","","false","549","589","362","619","[577.38,357.86],[546.04,618.56]","","false","null"
"","learner","14","243067","0.0-6.0-3.0","1532721508255","6-295","24814","","","","false","185","461","421","581","","[210.67,402.34],[463.77,584.14]","true","null"
"","learner","15","262430","0.0-6.0-4.0","1532721508255","6-295","19362","","","","false","249","582","351","625","[251.76,600.45]","[580.97,347.8]","true","null"
"","check_point_button","16","278119","0.0-7.0","1532721508255","6-295","15687","","<p><font size='25'>¡FELICITACIONES! <br><br> TERMINASTE EL NIVEL 1</font></p>","0","","","","","","","","",""
"","learner","17","289727","0.0-8.0-0.0","1532721508255","6-295","11606","","","","false","306","526","378","571","","[339.98,377.81],[522.91,569.45]","false","null"
"","learner","18","301790","0.0-8.0-1.0","1532721508255","6-295","12062","","","","false","456","666","338","448","[619.47,336.36],[461.47,443.46]","","false","null"
"","learner","19","313041","0.0-8.0-2.0","1532721508255","6-295","11250","","","","false","458","552","438","554","[554.85,550.21],[474.03,436.04]","","false","null"
"","learner","20","323273","0.0-8.0-3.0","1532721508255","6-295","10231","","","","false","158","512","326","499","[512.1,493.58]","[199.76,327.62]","false","null"
"","learner","21","331345","0.0-8.0-4.0","1532721508255","6-295","8070","","","","false","666","730","417","512","[669.52,510.88]","[728.15,428.39]","false","null"
"","check_point_button","22","336153","0.0-9.0","1532721508255","6-295","4807","","<p><font size='25'>¡FELICITACIONES! <br><br> TERMINASTE EL NIVEL 2</font></p>","0","","","","","","","","",""
"","learner","23","370172","0.0-10.0-0.0","1532721508255","6-295","34017","","","","false","639","752","113","322","","[543.68,323.95],[524.12,528.53]","true","null"
"","learner","24","383660","0.0-10.0-1.0","1532721508255","6-295","13487","","","","false","527","607","688","765","[601.42,692.27],[521.18,765.16]","","false","null"
"","learner","25","393204","0.0-10.0-2.0","1532721508255","6-295","9543","","","","false","292","460","483","630","[455.61,491.15],[291.53,634.66]","","false","null"
"","learner","26","428444","0.0-10.0-3.0","1532721508255","6-295","35239","","","","false","357","421","103","294","[478.64,478.36],[421.82,314.13]","","false","null"
"","learner","27","444360","0.0-10.0-4.0","1532721508255","6-295","15915","","","","false","463","584","463","513","[463.24,512.82],[558.32,462.83]","","false","null"
"","check_point_button","28","448879","0.0-11.0","1532721508255","6-295","4519","","<p><font size='25'>¡FELICITACIONES! <br><br> TERMINASTE EL NIVEL 3</font></p>","0","","","","","","","","",""
"","learner","29","460680","0.0-12.0-0.0","1532721508255","6-295","11799","","","","false","721","785","266","683","","[730.76,270.63],[723.56,680.64]","false","null"
"","learner","30","469280","0.0-12.0-1.0","1532721508255","6-295","8600","","","","false","588","895","378","651","","[755.49,378.9],[583.09,653.67]","false","null"
"","learner","31","476143","0.0-12.0-2.0","1532721508255","6-295","6862","","","","false","522","676","621","713","[631.8,620.49],[517.55,710.38]","","false","null"
"","learner","32","484567","0.0-12.0-3.0","1532721508255","6-295","8422","","","","false","446","577","537","731","","[447.52,726.16],[513.09,537.64]","false","null"
"","learner","33","492041","0.0-12.0-4.0","1532721508255","6-295","7473","","","","false","395","631","545","637","[574.5,544.38]","[390.35,636.11]","false","null"
"","check_point_button","34","494898","0.0-13.0","1532721508255","6-295","2856","","<p><font size='25'>¡FELICITACIONES! <br><br> TERMINASTE EL NIVEL 4</font></p>","0","","","","","","","","",""
"","learner","35","509034","0.0-14.0-0.0","1532721508255","6-295","14134","","","","false","282","478","509","697","","[359.87,509.65],[279.03,704.03]","false","null"
"","learner","36","518313","0.0-14.0-1.0","1532721508255","6-295","9278","","","","false","383","435","266","386","[414.94,266.45],[436.73,388.51]","","false","null"
"","learner","37","525946","0.0-14.0-2.0","1532721508255","6-295","7631","","","","false","258","454","336","503","[449.38,500.08]","[272.44,334.69]","true","null"
"","learner","38","534146","0.0-14.0-3.0","1532721508255","6-295","8200","","","","false","540","641","541","609","[537.14,605.85],[619.18,541.82]","","false","null"
"","learner","39","542042","0.0-14.0-4.0","1532721508255","6-295","7895","","","","false","366","550","196","748","","[549.52,744.78],[389.04,198.07]","false","null"
"","check_point_button","40","544883","0.0-15.0","1532721508255","6-295","2840","","<p><font size='25'>¡FELICITACIONES! <br><br> TERMINASTE EL NIVEL 5</font></p>","0","","","","","","","","",""
"","html-button-response","41","547403","0.0-16.0","1532721508255","6-295","2519","","<p align='center' style='font-size:25px;' > ¡ACORDATE DE QUE ALGUIEN TE DEJÓ ESTAS PISTAS PARA QUE ENCUENTRES LA CAJA! </p>","0","","","","","","","","",""
"","learner","42","556117","0.0-17.0-0.0","1532721508255","6-295","8714","","","","false","369","664","634","841","[662.64,743.11],[365.3,633.37]","","false","null"
"","learner","43","565943","0.0-17.0-1.0","1532721508255","6-295","9825","","","","false","250","550","281","478","","[546.09,479.36],[257.42,287.54]","false","null"
"","learner","44","578422","0.0-17.0-2.0","1532721508255","6-295","12477","","","","false","506","606","473","658","[553.88,476.62],[506.23,659.24]","","false","null"
"","learner","45","586957","0.0-17.0-3.0","1532721508255","6-295","8534","","","","false","557","883","252","698","[549.5,699.04]","[768.37,255.37]","false","null"
"","learner","46","594198","0.0-17.0-4.0","1532721508255","6-295","7239","","","","false","326","490","574","751","[439.24,574.86],[325.1,749.84]","","false","null"
"","check_point_button","47","597486","0.0-18.0","1532721508255","6-295","3288","","<p><font size='25'>¡FELICITACIONES! <br><br> TERMINASTE EL NIVEL 6</font></p>","0","","","","","","","","",""
"","learner","48","606309","0.0-19.0-0.0","1532721508255","6-295","8823","","","","false","489","614","613","730","","[563.75,615.13],[487.79,727.46]","false","null"
"","learner","49","614037","0.0-19.0-1.0","1532721508255","6-295","7726","","","","false","284","501","516","597","[283.59,595.3],[465.66,519.03]","","false","null"
"","learner","50","628544","0.0-19.0-2.0","1532721508255","6-295","14505","","","","false","613","700","494","733","","[696.36,729.77],[677.93,497.48]","false","null"
"","learner","51","634784","0.0-19.0-3.0","1532721508255","6-295","6238","","","","false","556","621","378","472","[573.72,375.8],[620.46,470.28]","","false","null"
"","learner","52","641496","0.0-19.0-4.0","1532721508255","6-295","6710","","","","false","441","543","342","467","","[479.08,347.45],[436.01,464.79]","false","null"
"","check_point_button","53","644632","0.0-20.0","1532721508255","6-295","3136","","<p><font size='25'>¡FELICITACIONES! <br><br> TERMINASTE EL NIVEL 7</font></p>","0","","","","","","","","",""
"","learner","54","653000","0.0-21.0-0.0","1532721508255","6-295","8366","","","","false","470","579","555","735","[487.46,552.68]","[470.97,736.62]","false","null"
"","learner","55","658664","0.0-21.0-1.0","1532721508255","6-295","5663","","","","false","497","708","565","726","","[705.82,687.62],[493.53,564.89]","false","null"
"","learner","56","670481","0.0-21.0-2.0","1532721508255","6-295","11815","","","","false","256","402","251","466","","[367.24,255.03],[399.94,464.63]","false","null"
"","learner","57","677652","0.0-21.0-3.0","1532721508255","6-295","7169","","","","false","464","518","629","749","[491.95,630.37]","[467.11,748.45]","false","null"
"","learner","58","686179","0.0-21.0-4.0","1532721508255","6-295","8525","","","","false","720","854","638","782","","[756.53,642.02],[717.64,777.32]","false","null"
"","check_point_button","59","689844","0.0-22.0","1532721508255","6-295","3663","","<p><font size='25'>¡FELICITACIONES! <br><br> TERMINASTE EL NIVEL 8</font></p>","0","","","","","","","","",""
"","learner","60","700611","0.0-23.0-0.0","1532721508255","6-295","10767","","","","false","543","767","202","343","[538.87,340.27]","[651.33,200.38]","false","null"
"","learner","61","707468","0.0-23.0-1.0","1532721508255","6-295","6855","","","","false","492","764","506","637","","[654.12,503.51],[488.81,637.1]","true","null"
"","learner","62","723194","0.0-23.0-2.0","1532721508255","6-295","15726","","","","false","609","817","569","689","[671.11,568.15]","[607.04,688.35]","false","null"
"","learner","63","731155","0.0-23.0-3.0","1532721508255","6-295","7959","","","","false","228","462","453","577","","[460.97,447.39],[234.75,571.17]","false","null"
"","learner","64","742253","0.0-23.0-4.0","1532721508255","6-295","11096","","","","false","268","650","326","521","","[519.63,325.51],[266.96,520.73]","true","null"
"","check_point_button","65","747814","0.0-24.0","1532721508255","6-295","5559","","<p><font size='25'>¡FELICITACIONES! <br><br> TERMINASTE EL NIVEL 9</font></p>","0","","","","","","","","",""
"","learner","66","756262","0.0-25.0-0.0","1532721508255","6-295","8447","","","","false","370","620","546","664","[617.56,611.48],[372.07,545.58]","","false","null"
"","learner","67","764709","0.0-25.0-1.0","1532721508255","6-295","8446","","","","false","468","797","512","754","","[467.91,754.78],[728.39,510.43]","true","null"
"","learner","68","779158","0.0-25.0-2.0","1532721508255","6-295","14447","","","","false","352","464","590","713","[361.07,591.66],[352.56,714.98]","","false","null"
"","learner","69","787486","0.0-25.0-3.0","1532721508255","6-295","8326","","","","false","253","360","568","674","[354.96,569.13]","[254.04,668.75]","false","null"
"","learner","70","795151","0.0-25.0-4.0","1532721508255","6-295","7663","","","","false","455","750","403","592","","[458.6,439.83],[757.16,592.76]","false","null"
"","check_point_button","71","836776","0.0-26.0","1532721508255","6-295","41625","","<p align='center' style='font-size:30px;' > COMPLETASTE TODOS LOS NIVELES  <br><br> ¡FELICITACIONES!<br><br> PRESIONA CUALQUIER TECLA PARA TERMINAR</p>","0","","","","","","","","",""
