"success","trial_type","trial_index","time_elapsed","internal_node_id","start_time","Id","rt","responses","stimulus","button_pressed","Prueba","X_left","X_right","Y_top","Y_bottom","Circles","Crosses","Consistency","key_press"
"true","fullscreen","0","2422","0.0-0.0","1532715888354","7-269","","","","","","","","","","","","",""
"","survey-text","1","9920","0.0-1.0","1532715888354","7-269","7494","{""Q0"":""7-269""}","","","","","","","","","","",""
"","my_image_button","2","23871","0.0-2.0-0.0","1532715888354","7-269","13949","","img/caja.png","0","","","","","","","","",""
"","my_image_button","3","39342","0.0-2.0-1.0","1532715888354","7-269","15471","","img/caja_con_ejemplos.png","0","","","","","","","","",""
"","my_image_button","4","48647","0.0-2.0-2.0","1532715888354","7-269","9303","","","0","","","","","","","","",""
"","learner","5","90075","0.0-3.0-0.0","1532715888354","7-269","41421","","","","true","556","604","187","397","[641.83,610.26],[602.05,403.89]","","false","null"
"","learner","6","140765","0.0-3.0-1.0","1532715888354","7-269","50687","","","","true","481","635","576","706","[479.25,571.17]","[636.76,719.89]","false","null"
"","learner","7","168165","0.0-3.0-2.0","1532715888354","7-269","27399","","","","true","549","780","186","436","","[571.82,641.28],[275.12,436.22]","true","null"
"","learner","8","185280","0.0-3.0-3.0","1532715888354","7-269","17113","","","","true","541","748","576","800","[439.77,382.03]","[288.97,576.84]","false","null"
"","check_point_button","9","202584","0.0-4.0","1532715888354","7-269","17303","","<p><font size='25px'>ENTONCES, ¿QUÉ TENÉS QUE HACER? </font></p>","0","","","","","","","","",""
"","html-button-response","10","214713","0.0-5.0","1532715888354","7-269","12126","","<p align='center' style='font-size:25px;' > HAY 10 NIVELES <br> ¿ESTÁS LISTO/A PARA EMPEZAR? </p>","0","","","","","","","","",""
"","learner","11","240905","0.0-6.0-0.0","1532715888354","7-269","26190","","","","false","662","887","114","308","[521.83,477.61]","[578.86,287.27]","false","null"
"","learner","12","250923","0.0-6.0-1.0","1532715888354","7-269","10016","","","","false","710","968","529","749","[568.05,336.93],[676.22,437.06]","","false","null"
"","learner","13","262146","0.0-6.0-2.0","1532715888354","7-269","11223","","","","false","807","1099","687","948","","[506.44,345.14],[401.31,592.48]","true","null"
"","learner","14","272338","0.0-6.0-3.0","1532715888354","7-269","10190","","","","false","663","846","702","871","","[661.49,485.15],[456.4,669.3]","true","null"
"","learner","15","281522","0.0-6.0-4.0","1532715888354","7-269","9183","","","","false","252","496","471","687","","[695.63,456.73],[729.85,671.73]","true","null"
"","check_point_button","16","287498","0.0-7.0","1532715888354","7-269","5975","","<p><font size='25'>¡FELICITACIONES! <br><br> TERMINASTE EL NIVEL 1</font></p>","0","","","","","","","","",""
"","learner","17","305003","0.0-8.0-0.0","1532715888354","7-269","17502","","","","false","318","565","264","475","[504.39,435.97],[440.91,292.96]","","true","null"
"","learner","18","331870","0.0-8.0-1.0","1532715888354","7-269","26865","","","","false","41","278","84","331","[479.33,412.77]","[630.49,518.12]","false","null"
"","learner","19","337518","0.0-8.0-2.0","1532715888354","7-269","5647","","","","false","404","571","572","754","[527.11,638.48]","[627.72,602.19]","true","null"
"","learner","20","353550","0.0-8.0-3.0","1532715888354","7-269","16031","","","","false","119","424","349","663","","[516.83,320.54],[737.94,487.14]","true","null"
"","learner","21","364814","0.0-8.0-4.0","1532715888354","7-269","11263","","","","false","639","640","606","606","","[437.46,362.09],[732.94,526.72]","true","null"
"","check_point_button","22","367031","0.0-9.0","1532715888354","7-269","2215","","<p><font size='25'>¡FELICITACIONES! <br><br> TERMINASTE EL NIVEL 2</font></p>","0","","","","","","","","",""
"","learner","23","375298","0.0-10.0-0.0","1532715888354","7-269","8264","","","","false","509","739","470","662","[598.22,508.63],[589.37,641.57]","","true","null"
"","learner","24","385113","0.0-10.0-1.0","1532715888354","7-269","9814","","","","false","237","489","581","837","[370.65,598.16]","[577.21,771.81]","true","null"
"","learner","25","394785","0.0-10.0-2.0","1532715888354","7-269","9671","","","","false","355","560","376","580","[389.22,533.41]","[595.28,338.66]","true","null"
"","learner","26","409265","0.0-10.0-3.0","1532715888354","7-269","14479","","","","false","709","948","450","678","","[356.45,397.99],[579.46,564.96]","true","null"
"","learner","27","416442","0.0-10.0-4.0","1532715888354","7-269","7175","","","","false","212","429","352","598","","[445.7,537.71],[530.5,485.57]","true","null"
"","check_point_button","28","419146","0.0-11.0","1532715888354","7-269","2703","","<p><font size='25'>¡FELICITACIONES! <br><br> TERMINASTE EL NIVEL 3</font></p>","0","","","","","","","","",""
"","learner","29","426674","0.0-12.0-0.0","1532715888354","7-269","7527","","","","false","687","929","408","633","","[476.88,591.13],[302.19,434.98]","true","null"
"","learner","30","434692","0.0-12.0-1.0","1532715888354","7-269","8018","","","","false","488","802","476","783","[621.44,732.24],[618.91,550.92]","","true","null"
"","learner","31","442548","0.0-12.0-2.0","1532715888354","7-269","7855","","","","false","483","699","449","655","","[665.97,646.61],[448.59,747.53]","false","null"
"","learner","32","448261","0.0-12.0-3.0","1532715888354","7-269","5710","","","","false","909","1048","662","844","","[383.77,508.18],[341.47,596.45]","true","null"
"","learner","33","453333","0.0-12.0-4.0","1532715888354","7-269","5070","","","","false","572","795","130","342","","[608.27,601.09],[411.76,263.66]","true","null"
"","check_point_button","34","455797","0.0-13.0","1532715888354","7-269","2463","","<p><font size='25'>¡FELICITACIONES! <br><br> TERMINASTE EL NIVEL 4</font></p>","0","","","","","","","","",""
"","learner","35","461300","0.0-14.0-0.0","1532715888354","7-269","5502","","","","false","360","518","643","788","[451.84,677.59]","[463.06,505.67]","true","null"
"","learner","36","476213","0.0-14.0-1.0","1532715888354","7-269","14910","","","","false","431","496","607","682","[454.59,673.27]","[337.28,334.34]","true","null"
"","learner","37","491685","0.0-14.0-2.0","1532715888354","7-269","15471","","","","false","520","520","968","973","[675.49,313.15]","[641.04,596.47]","true","null"
"","learner","38","503664","0.0-14.0-3.0","1532715888354","7-269","11977","","","","false","341","636","160","491","","[258.46,654.25],[462.04,560.26]","true","null"
"","learner","39","510518","0.0-14.0-4.0","1532715888354","7-269","6854","","","","false","652","915","528","794","[766.27,663.05],[683.69,608.12]","","true","null"
"","check_point_button","40","513238","0.0-15.0","1532715888354","7-269","2720","","<p><font size='25'>¡FELICITACIONES! <br><br> TERMINASTE EL NIVEL 5</font></p>","0","","","","","","","","",""
"","html-button-response","41","527511","0.0-16.0","1532715888354","7-269","14272","","<p align='center' style='font-size:25px;' > ¡ACORDATE DE QUE ALGUIEN TE DEJÓ ESTAS PISTAS PARA QUE ENCUENTRES LA CAJA! </p>","0","","","","","","","","",""
"","learner","42","534502","0.0-17.0-0.0","1532715888354","7-269","6989","","","","false","416","613","414","595","","[400.29,746.53],[198.25,559.45]","true","null"
"","learner","43","544038","0.0-17.0-1.0","1532715888354","7-269","9535","","","","false","85","416","411","717","","[636.12,685.38],[763.15,481.76]","true","null"
"","learner","44","560985","0.0-17.0-2.0","1532715888354","7-269","16944","","","","false","424","434","594","605","[427.32,596.23]","[604.93,469.62]","true","null"
"","learner","45","567729","0.0-17.0-3.0","1532715888354","7-269","6743","","","","false","457","655","542","715","[530.08,641.05],[645.17,560.83]","","true","null"
"","learner","46","574113","0.0-17.0-4.0","1532715888354","7-269","6383","","","","false","480","868","357","739","[561.5,594.37],[585.26,419.75]","","true","null"
"","check_point_button","47","576914","0.0-18.0","1532715888354","7-269","2798","","<p><font size='25'>¡FELICITACIONES! <br><br> TERMINASTE EL NIVEL 6</font></p>","0","","","","","","","","",""
"","learner","48","586649","0.0-19.0-0.0","1532715888354","7-269","9735","","","","false","617","665","458","505","","[255.69,677.25],[395.49,447.32]","true","null"
"","learner","49","592514","0.0-19.0-1.0","1532715888354","7-269","5863","","","","false","489","501","383","414","[494.12,398.66]","[571.54,606.59]","true","null"
"","learner","50","597490","0.0-19.0-2.0","1532715888354","7-269","4974","","","","false","168","516","478","803","","[492.27,284.41],[612.57,241.67]","true","null"
"","learner","51","605603","0.0-19.0-3.0","1532715888354","7-269","8112","","","","false","403","673","582","817","","[485.89,402.09],[403.05,503.54]","true","null"
"","learner","52","613650","0.0-19.0-4.0","1532715888354","7-269","8046","","","","false","119","703","213","807","[498.42,505.67],[584.62,644.31]","","true","null"
"","check_point_button","53","616188","0.0-20.0","1532715888354","7-269","2537","","<p><font size='25'>¡FELICITACIONES! <br><br> TERMINASTE EL NIVEL 7</font></p>","0","","","","","","","","",""
"","learner","54","624692","0.0-21.0-0.0","1532715888354","7-269","8501","","","","false","274","363","636","742","[351.54,659.94]","[397.5,327.12]","true","null"
"","learner","55","629996","0.0-21.0-1.0","1532715888354","7-269","5302","","","","false","166","603","335","756","","[662.71,394.66],[773.57,440.25]","true","null"
"","learner","56","635020","0.0-21.0-2.0","1532715888354","7-269","5022","","","","false","151","554","370","734","[301.43,538.8],[495.71,449.41]","","true","null"
"","learner","57","652228","0.0-21.0-3.0","1532715888354","7-269","17207","","","","false","556","626","618","955","[627.2,526.55],[610.41,330.53]","","false","null"
"","learner","58","666269","0.0-21.0-4.0","1532715888354","7-269","14040","","","","false","406","627","517","750","[572.14,726.86],[623.56,564.84]","","true","null"
"","check_point_button","59","668821","0.0-22.0","1532715888354","7-269","2551","","<p><font size='25'>¡FELICITACIONES! <br><br> TERMINASTE EL NIVEL 8</font></p>","0","","","","","","","","",""
"","learner","60","676832","0.0-23.0-0.0","1532715888354","7-269","8010","","","","false","324","455","390","521","[327.39,427.98]","[199.67,591.61]","true","null"
"","learner","61","692999","0.0-23.0-1.0","1532715888354","7-269","16166","","","","false","393","563","301","495","[502.99,420.57],[544.03,323.88]","","true","null"
"","learner","62","699519","0.0-23.0-2.0","1532715888354","7-269","6518","","","","false","211","430","288","526","","[710.44,240.17],[742.26,710.85]","true","null"
"","learner","63","721288","0.0-23.0-3.0","1532715888354","7-269","21767","","","","false","421","618","454","638","[541.22,582.53],[608.43,474.14]","","true","null"
"","learner","64","736858","0.0-23.0-4.0","1532715888354","7-269","15568","","","","false","178","357","502","688","[342.28,556.1],[233.59,675.75]","","true","null"
"","check_point_button","65","740290","0.0-24.0","1532715888354","7-269","3431","","<p><font size='25'>¡FELICITACIONES! <br><br> TERMINASTE EL NIVEL 9</font></p>","0","","","","","","","","",""
"","learner","66","747018","0.0-25.0-0.0","1532715888354","7-269","6726","","","","false","471","702","299","564","","[364.56,695.81],[504.56,656.04]","true","null"
"","learner","67","752538","0.0-25.0-1.0","1532715888354","7-269","5518","","","","false","284","389","414","537","[355.37,494.77]","[388.18,740.17]","true","null"
"","learner","68","757891","0.0-25.0-2.0","1532715888354","7-269","5352","","","","false","486","577","225","337","[537.61,270.61]","[603.55,477.68]","true","null"
"","learner","69","763266","0.0-25.0-3.0","1532715888354","7-269","5374","","","","false","286","358","645","745","[317.09,689]","[245.83,768.18]","true","null"
"","learner","70","780402","0.0-25.0-4.0","1532715888354","7-269","17135","","","","false","-123","343","25","401","[504.27,662.86],[359.64,440.09]","","false","null"
"","check_point_button","71","821301","0.0-26.0","1532715888354","7-269","40899","","<p align='center' style='font-size:30px;' > COMPLETASTE TODOS LOS NIVELES  <br><br> ¡FELICITACIONES!<br><br> PRESIONA CUALQUIER TECLA PARA TERMINAR</p>","0","","","","","","","","",""
