"success","trial_type","trial_index","time_elapsed","internal_node_id","start_time","Id","rt","responses","stimulus","button_pressed","Prueba","X_left","X_right","Y_top","Y_bottom","Circles","Crosses","Consistency","key_press"
"true","fullscreen","0","2421","0.0-0.0","1532123292580","8-254","","","","","","","","","","","","",""
"","survey-text","1","8859","0.0-1.0","1532123292580","8-254","6435","{""Q0"":""8-254""}","","","","","","","","","","",""
"","my_image_button","2","30075","0.0-2.0-0.0","1532123292580","8-254","21214","","img/caja.png","0","","","","","","","","",""
"","my_image_button","3","57275","0.0-2.0-1.0","1532123292580","8-254","27199","","img/caja_con_ejemplos.png","0","","","","","","","","",""
"","my_image_button","4","66775","0.0-2.0-2.0","1532123292580","8-254","9499","","","0","","","","","","","","",""
"","learner","5","84215","0.0-3.0-0.0","1532123292580","8-254","17434","","","","true","522","709","249","563","[600.58,562.92],[617.18,273.17]","","true","null"
"","learner","6","98135","0.0-3.0-1.0","1532123292580","8-254","13918","","","","true","368","505","232","353","[417.89,296.74]","[294.41,448.47]","true","null"
"","learner","7","113279","0.0-3.0-2.0","1532123292580","8-254","15143","","","","true","604","785","472","591","","[514.16,562.79],[627.4,471.98]","true","null"
"","learner","8","122143","0.0-3.0-3.0","1532123292580","8-254","8861","","","","true","372","498","538","658","[411.87,604.24]","[291.21,666.44]","true","null"
"","check_point_button","9","152029","0.0-4.0","1532123292580","8-254","29884","","<p><font size='25px'>ENTONCES, ¿QUÉ TENÉS QUE HACER? </font></p>","0","","","","","","","","",""
"","html-button-response","10","158445","0.0-5.0","1532123292580","8-254","6415","","<p align='center' style='font-size:25px;' > HAY 10 NIVELES <br> ¿ESTÁS LISTO/A PARA EMPEZAR? </p>","0","","","","","","","","",""
"","learner","11","167645","0.0-6.0-0.0","1532123292580","8-254","9198","","","","false","361","590","255","337","","[549.98,362.02],[451.29,443.58]","true","null"
"","learner","12","174941","0.0-6.0-1.0","1532123292580","8-254","7294","","","","false","207","474","432","640","[399.3,585.28],[240.51,488.89]","","true","null"
"","learner","13","180253","0.0-6.0-2.0","1532123292580","8-254","5311","","","","false","509","674","487","588","[591.86,535.41]","[643.26,696.21]","true","null"
"","learner","14","185693","0.0-6.0-3.0","1532123292580","8-254","5438","","","","false","428","627","456","560","","[726.07,478.09],[577.46,364.56]","true","null"
"","learner","15","192109","0.0-6.0-4.0","1532123292580","8-254","6414","","","","false","438","621","390","492","","[631.65,548.14],[424.4,310.85]","true","null"
"","check_point_button","16","201325","0.0-7.0","1532123292580","8-254","9215","","<p><font size='25'>¡FELICITACIONES! <br><br> TERMINASTE EL NIVEL 1</font></p>","0","","","","","","","","",""
"","learner","17","219872","0.0-8.0-0.0","1532123292580","8-254","18542","","","","false","553","681","688","807","[602.63,747.79]","[352.18,566.53]","true","null"
"","learner","18","227272","0.0-8.0-1.0","1532123292580","8-254","7398","","","","false","484","652","501","599","","[469.95,423.27],[625.66,649.76]","true","null"
"","learner","19","233856","0.0-8.0-2.0","1532123292580","8-254","6583","","","","false","387","651","362","649","[433.47,406.15],[604.27,604.13]","","true","null"
"","learner","20","240992","0.0-8.0-3.0","1532123292580","8-254","7133","","","","false","537","739","258","494","[596.82,466.26],[700.26,277.52]","","true","null"
"","learner","21","256744","0.0-8.0-4.0","1532123292580","8-254","15751","","","","false","583","763","524","730","[623.32,546.88],[709.06,702.97]","","true","null"
"","check_point_button","22","260944","0.0-9.0","1532123292580","8-254","4198","","<p><font size='25'>¡FELICITACIONES! <br><br> TERMINASTE EL NIVEL 2</font></p>","0","","","","","","","","",""
"","learner","23","266967","0.0-10.0-0.0","1532123292580","8-254","6022","","","","false","329","486","444","591","[393.88,570.03],[433.88,453.75]","","true","null"
"","learner","24","272984","0.0-10.0-1.0","1532123292580","8-254","6014","","","","false","491","613","483","580","","[648.59,435.04],[432.6,574.86]","true","null"
"","learner","25","277170","0.0-10.0-2.0","1532123292580","8-254","4185","","","","false","398","593","491","609","","[367.66,645.6],[551.68,384.87]","true","null"
"","learner","26","282331","0.0-10.0-3.0","1532123292580","8-254","5159","","","","false","434","543","482","571","","[525.83,448.17],[410.53,595.82]","true","null"
"","learner","27","286515","0.0-10.0-4.0","1532123292580","8-254","4182","","","","false","625","741","529","647","[663.47,587.37]","[467.75,662.38]","true","null"
"","check_point_button","28","289987","0.0-11.0","1532123292580","8-254","3471","","<p><font size='25'>¡FELICITACIONES! <br><br> TERMINASTE EL NIVEL 3</font></p>","0","","","","","","","","",""
"","learner","29","295395","0.0-12.0-0.0","1532123292580","8-254","5406","","","","false","429","566","456","579","[492.36,515.81]","[650.46,579.05]","true","null"
"","learner","30","299979","0.0-12.0-1.0","1532123292580","8-254","4582","","","","false","408","495","321","409","[440.53,361.48]","[715.27,236.56]","true","null"
"","learner","31","304059","0.0-12.0-2.0","1532123292580","8-254","4078","","","","false","482","574","415","510","[523.03,449.97]","[399.47,288.59]","true","null"
"","learner","32","307619","0.0-12.0-3.0","1532123292580","8-254","3558","","","","false","469","540","612","688","[496.41,653.36]","[450.28,553.53]","true","null"
"","learner","33","312915","0.0-12.0-4.0","1532123292580","8-254","5294","","","","false","353","490","302","400","","[294.96,250.87],[498.09,430.28]","true","null"
"","check_point_button","34","317364","0.0-13.0","1532123292580","8-254","4447","","<p><font size='25'>¡FELICITACIONES! <br><br> TERMINASTE EL NIVEL 4</font></p>","0","","","","","","","","",""
"","learner","35","322771","0.0-14.0-0.0","1532123292580","8-254","5406","","","","false","503","665","295","423","","[464.1,445.24],[693.7,264.62]","true","null"
"","learner","36","327516","0.0-14.0-1.0","1532123292580","8-254","4743","","","","false","538","650","383","464","[587.15,403.06]","[575.95,234.2]","true","null"
"","learner","37","332180","0.0-14.0-2.0","1532123292580","8-254","4663","","","","false","339","478","446","635","[401.58,456.26],[417.36,597.9]","","true","null"
"","learner","38","336574","0.0-14.0-3.0","1532123292580","8-254","4392","","","","false","504","611","401","562","","[540.26,591.54],[557.37,323.82]","true","null"
"","learner","39","340935","0.0-14.0-4.0","1532123292580","8-254","4357","","","","false","478","658","566","723","[495.4,613.9],[625.2,651.3]","","true","null"
"","check_point_button","40","343750","0.0-15.0","1532123292580","8-254","2814","","<p><font size='25'>¡FELICITACIONES! <br><br> TERMINASTE EL NIVEL 5</font></p>","0","","","","","","","","",""
"","html-button-response","41","346590","0.0-16.0","1532123292580","8-254","2839","","<p align='center' style='font-size:25px;' > ¡ACORDATE DE QUE ALGUIEN TE DEJÓ ESTAS PISTAS PARA QUE ENCUENTRES LA CAJA! </p>","0","","","","","","","","",""
"","learner","42","351966","0.0-17.0-0.0","1532123292580","8-254","5374","","","","false","344","483","315","493","[416.32,344.38],[419.11,456.77]","","true","null"
"","learner","43","355846","0.0-17.0-1.0","1532123292580","8-254","3879","","","","false","243","326","344","420","[285.5,373.76]","[322.98,467.55]","true","null"
"","learner","44","359454","0.0-17.0-2.0","1532123292580","8-254","3606","","","","false","501","586","373","444","[534.27,401.69]","[523.1,223.4]","true","null"
"","learner","45","364334","0.0-17.0-3.0","1532123292580","8-254","4878","","","","false","598","782","361","601","[734.13,454.71],[642.18,542.6]","","true","null"
"","learner","46","369359","0.0-17.0-4.0","1532123292580","8-254","5023","","","","false","341","522","583","686","","[276.18,563.82],[581.88,681.16]","true","null"
"","check_point_button","47","373559","0.0-18.0","1532123292580","8-254","4199","","<p><font size='25'>¡FELICITACIONES! <br><br> TERMINASTE EL NIVEL 6</font></p>","0","","","","","","","","",""
"","learner","48","378567","0.0-19.0-0.0","1532123292580","8-254","5005","","","","false","470","604","694","784","","[641.6,762.57],[399.29,691.87]","true","null"
"","learner","49","382975","0.0-19.0-1.0","1532123292580","8-254","4407","","","","false","421","575","326","442","","[371.5,322.35],[615.97,417.48]","true","null"
"","learner","50","387591","0.0-19.0-2.0","1532123292580","8-254","4615","","","","false","455","634","267","479","[498.79,342.43],[592.5,427.42]","","true","null"
"","learner","51","391375","0.0-19.0-3.0","1532123292580","8-254","3782","","","","false","354","465","544","599","[404.2,561.8]","[427.27,719.34]","true","null"
"","learner","52","397273","0.0-19.0-4.0","1532123292580","8-254","5897","","","","false","669","780","323","539","[734.2,369.33],[741.79,511.67]","","true","null"
"","check_point_button","53","400105","0.0-20.0","1532123292580","8-254","2832","","<p><font size='25'>¡FELICITACIONES! <br><br> TERMINASTE EL NIVEL 7</font></p>","0","","","","","","","","",""
"","learner","54","405105","0.0-21.0-0.0","1532123292580","8-254","4998","","","","false","489","698","264","432","[527.96,400.89],[662,310.38]","","true","null"
"","learner","55","416241","0.0-21.0-1.0","1532123292580","8-254","11133","","","","false","509","734","420","649","[692.82,608.9],[524.87,480.33]","","true","null"
"","learner","56","422177","0.0-21.0-2.0","1532123292580","8-254","5934","","","","false","273","499","284","448","[297.98,405.75],[471.66,335.94]","","true","null"
"","learner","57","426730","0.0-21.0-3.0","1532123292580","8-254","4550","","","","false","501","631","411","533","[561.02,470.24]","[425.25,646.19]","true","null"
"","learner","58","430386","0.0-21.0-4.0","1532123292580","8-254","3654","","","","false","411","522","576","702","[453.26,636.55]","[365.77,388.73]","true","null"
"","check_point_button","59","433201","0.0-22.0","1532123292580","8-254","2815","","<p><font size='25'>¡FELICITACIONES! <br><br> TERMINASTE EL NIVEL 8</font></p>","0","","","","","","","","",""
"","learner","60","437778","0.0-23.0-0.0","1532123292580","8-254","4574","","","","false","370","474","487","673","[414.09,637.51],[443.51,510.91]","","true","null"
"","learner","61","440962","0.0-23.0-1.0","1532123292580","8-254","3182","","","","false","656","736","543","614","[694.28,576.79]","[608.05,469.39]","true","null"
"","learner","62","444466","0.0-23.0-2.0","1532123292580","8-254","3503","","","","false","297","341","616","670","[312.03,641.35]","[502.44,457.45]","true","null"
"","learner","63","447018","0.0-23.0-3.0","1532123292580","8-254","2551","","","","false","319","423","631","755","[375.01,696.06]","[406.24,443.17]","true","null"
"","learner","64","450602","0.0-23.0-4.0","1532123292580","8-254","3584","","","","false","452","538","594","665","[487.11,609.01]","[716.92,368.26]","true","null"
"","check_point_button","65","453802","0.0-24.0","1532123292580","8-254","3200","","<p><font size='25'>¡FELICITACIONES! <br><br> TERMINASTE EL NIVEL 9</font></p>","0","","","","","","","","",""
"","learner","66","457877","0.0-25.0-0.0","1532123292580","8-254","4072","","","","false","359","514","630","736","","[552.72,744.1],[307.36,631.63]","true","null"
"","learner","67","465364","0.0-25.0-1.0","1532123292580","8-254","7486","","","","false","522","788","514","711","[585.98,647.48],[758.35,541.36]","","true","null"
"","learner","68","470588","0.0-25.0-2.0","1532123292580","8-254","5223","","","","false","387","524","408","607","[464.56,424.73],[433.76,581.07]","","true","null"
"","learner","69","481060","0.0-25.0-3.0","1532123292580","8-254","10469","","","","false","692","765","500","549","","[758.83,482.86],[664.46,541.82]","true","null"
"","learner","70","485189","0.0-25.0-4.0","1532123292580","8-254","4128","","","","false","591","761","538","624","","[572.53,623.9],[731.38,470.9]","true","null"
"","check_point_button","71","487678","0.0-26.0","1532123292580","8-254","2488","","<p align='center' style='font-size:30px;' > COMPLETASTE TODOS LOS NIVELES  <br><br> ¡FELICITACIONES!<br><br> PRESIONA CUALQUIER TECLA PARA TERMINAR</p>","0","","","","","","","","",""
