"success","trial_type","trial_index","time_elapsed","internal_node_id","start_time","Id","rt","responses","stimulus","button_pressed","Prueba","X_left","X_right","Y_top","Y_bottom","Circles","Crosses","Consistency","key_press"
"true","fullscreen","0","4613","0.0-0.0","1532716805111","9-268","","","","","","","","","","","","",""
"","survey-text","1","10040","0.0-1.0","1532716805111","9-268","5422","{""Q0"":""9-268""}","","","","","","","","","","",""
"","my_image_button","2","26540","0.0-2.0-0.0","1532716805111","9-268","16496","","img/caja.png","0","","","","","","","","",""
"","my_image_button","3","47268","0.0-2.0-1.0","1532716805111","9-268","20727","","img/caja_con_ejemplos.png","0","","","","","","","","",""
"","my_image_button","4","55820","0.0-2.0-2.0","1532716805111","9-268","8551","","","0","","","","","","","","",""
"","learner","5","82695","0.0-3.0-0.0","1532716805111","9-268","26870","","","","true","478","767","392","486","[488.83,479.94],[691.4,409.73]","","true","null"
"","learner","6","92392","0.0-3.0-1.0","1532716805111","9-268","9694","","","","true","308","412","570","630","[371.78,588.41]","[198.87,508.23]","true","null"
"","learner","7","100502","0.0-3.0-2.0","1532716805111","9-268","8110","","","","true","305","489","636","702","","[572.94,695],[476.33,602.91]","true","null"
"","learner","8","108575","0.0-3.0-3.0","1532716805111","9-268","8072","","","","true","338","595","373","461","[431.78,449.78]","[467.38,252.64]","true","null"
"","check_point_button","9","125771","0.0-4.0","1532716805111","9-268","17193","","<p><font size='25px'>ENTONCES, ¿QUÉ TENÉS QUE HACER? </font></p>","0","","","","","","","","",""
"","html-button-response","10","135226","0.0-5.0","1532716805111","9-268","9453","","<p align='center' style='font-size:25px;' > HAY 10 NIVELES <br> ¿ESTÁS LISTO/A PARA EMPEZAR? </p>","0","","","","","","","","",""
"","learner","11","152042","0.0-6.0-0.0","1532716805111","9-268","16813","","","","false","317","523","239","612","[447.69,597.59],[338.59,251.77]","","true","null"
"","learner","12","156882","0.0-6.0-1.0","1532716805111","9-268","4837","","","","false","264","436","465","588","[314.03,560.26]","[409.28,317.86]","true","null"
"","learner","13","161418","0.0-6.0-2.0","1532716805111","9-268","4533","","","","false","311","426","528","595","","[512.62,475.19],[537.82,598.11]","true","null"
"","learner","14","166114","0.0-6.0-3.0","1532716805111","9-268","4694","","","","false","279","484","503","586","","[463.42,446.7],[610.87,507.49]","true","null"
"","learner","15","171722","0.0-6.0-4.0","1532716805111","9-268","5606","","","","false","26","351","339","517","","[429.53,262.74],[561.61,563.19]","true","null"
"","check_point_button","16","177323","0.0-7.0","1532716805111","9-268","5599","","<p><font size='25'>¡FELICITACIONES! <br><br> TERMINASTE EL NIVEL 1</font></p>","0","","","","","","","","",""
"","learner","17","181522","0.0-8.0-0.0","1532716805111","9-268","4197","","","","false","432","510","435","492","[462.95,471.16]","[565.44,404.16]","true","null"
"","learner","18","185379","0.0-8.0-1.0","1532716805111","9-268","3855","","","","false","252","408","588","680","[330.53,638.16]","[270.97,481.72]","true","null"
"","learner","19","223197","0.0-8.0-2.0","1532716805111","9-268","37817","","","","false","485","611","500","603","[576.26,580.94],[498.95,512.39]","","true","null"
"","learner","20","227549","0.0-8.0-3.0","1532716805111","9-268","4349","","","","false","265","527","553","665","","[680.08,647.01],[323.41,495.13]","true","null"
"","learner","21","233005","0.0-8.0-4.0","1532716805111","9-268","5454","","","","false","448","572","429","501","[517.44,459.98]","[349.13,378.03]","true","null"
"","check_point_button","22","235149","0.0-9.0","1532716805111","9-268","2143","","<p><font size='25'>¡FELICITACIONES! <br><br> TERMINASTE EL NIVEL 2</font></p>","0","","","","","","","","",""
"","learner","23","245157","0.0-10.0-0.0","1532716805111","9-268","10006","","","","false","294","581","619","692","[347.73,623.35],[481.55,684.06]","","true","null"
"","learner","24","254209","0.0-10.0-1.0","1532716805111","9-268","9049","","","","false","483","754","495","604","[683.18,582.45],[498,511.42]","","true","null"
"","learner","25","258257","0.0-10.0-2.0","1532716805111","9-268","4045","","","","false","281","446","400","486","[325.75,455.23]","[482.55,203.95]","true","null"
"","learner","26","262312","0.0-10.0-3.0","1532716805111","9-268","4055","","","","false","247","448","652","768","","[613.56,712.83],[464.32,613.23]","true","null"
"","learner","27","265656","0.0-10.0-4.0","1532716805111","9-268","3342","","","","false","95","334","420","537","","[543.67,512.37],[510.51,603.99]","true","null"
"","check_point_button","28","267720","0.0-11.0","1532716805111","9-268","2063","","<p><font size='25'>¡FELICITACIONES! <br><br> TERMINASTE EL NIVEL 3</font></p>","0","","","","","","","","",""
"","learner","29","270616","0.0-12.0-0.0","1532716805111","9-268","2894","","","","false","283","459","544","649","","[585.86,484.64],[663.62,736.76]","true","null"
"","learner","30","273353","0.0-12.0-1.0","1532716805111","9-268","2734","","","","false","353","545","591","683","","[726.91,751.74],[755.09,600.12]","true","null"
"","learner","31","278329","0.0-12.0-2.0","1532716805111","9-268","4974","","","","false","345","676","482","649","[485.34,618.91],[525.68,495.6]","","true","null"
"","learner","32","282601","0.0-12.0-3.0","1532716805111","9-268","4270","","","","false","333","538","289","369","[468.33,348.22],[363.37,311.33]","","true","null"
"","learner","33","287841","0.0-12.0-4.0","1532716805111","9-268","5238","","","","false","222","485","436","551","","[255.01,699.31],[213.61,302.67]","true","null"
"","check_point_button","34","289088","0.0-13.0","1532716805111","9-268","1246","","<p><font size='25'>¡FELICITACIONES! <br><br> TERMINASTE EL NIVEL 4</font></p>","0","","","","","","","","",""
"","learner","35","292577","0.0-14.0-0.0","1532716805111","9-268","3485","","","","false","304","428","535","576","[350.72,562.05]","[377.91,453.17]","true","null"
"","learner","36","296601","0.0-14.0-1.0","1532716805111","9-268","4023","","","","false","390","701","361","447","","[575.19,268.8],[445.17,616.86]","true","null"
"","learner","37","302873","0.0-14.0-2.0","1532716805111","9-268","6270","","","","false","379","477","480","498","[407.56,489.8]","[412.92,359.29]","true","null"
"","learner","38","305994","0.0-14.0-3.0","1532716805111","9-268","3118","","","","false","344","579","452","601","","[360.77,776.63],[501,313.37]","true","null"
"","learner","39","309908","0.0-14.0-4.0","1532716805111","9-268","3911","","","","false","195","356","482","561","","[236.94,386.6],[444.72,469.3]","true","null"
"","check_point_button","40","311740","0.0-15.0","1532716805111","9-268","1831","","<p><font size='25'>¡FELICITACIONES! <br><br> TERMINASTE EL NIVEL 5</font></p>","0","","","","","","","","",""
"","html-button-response","41","313196","0.0-16.0","1532716805111","9-268","1455","","<p align='center' style='font-size:25px;' > ¡ACORDATE DE QUE ALGUIEN TE DEJÓ ESTAS PISTAS PARA QUE ENCUENTRES LA CAJA! </p>","0","","","","","","","","",""
"","learner","42","318236","0.0-17.0-0.0","1532716805111","9-268","5038","","","","false","448","633","323","516","[475.55,338.35],[587.24,476.59]","","true","null"
"","learner","43","326604","0.0-17.0-1.0","1532716805111","9-268","8366","","","","false","571","616","509","553","[586.52,531.53]","[417.06,483.75]","true","null"
"","learner","44","331644","0.0-17.0-2.0","1532716805111","9-268","5037","","","","false","501","672","541","647","","[436.42,685.3],[426.98,560.69]","true","null"
"","learner","45","335403","0.0-17.0-3.0","1532716805111","9-268","3758","","","","false","523","627","392","447","[563.82,419.71]","[516.21,245.4]","true","null"
"","learner","46","338812","0.0-17.0-4.0","1532716805111","9-268","3407","","","","false","362","646","536","639","[428.81,567.75],[551.51,613.04]","","true","null"
"","check_point_button","47","340012","0.0-18.0","1532716805111","9-268","1199","","<p><font size='25'>¡FELICITACIONES! <br><br> TERMINASTE EL NIVEL 6</font></p>","0","","","","","","","","",""
"","learner","48","346116","0.0-19.0-0.0","1532716805111","9-268","6101","","","","false","351","438","214","376","[369.58,368.52],[388.65,246.98]","","true","null"
"","learner","49","351364","0.0-19.0-1.0","1532716805111","9-268","5246","","","","false","557","867","596","703","[600.36,664.08],[707.68,603.91]","","true","null"
"","learner","50","356412","0.0-19.0-2.0","1532716805111","9-268","5047","","","","false","332","435","329","356","[379.52,348.93]","[478.36,298.73]","true","null"
"","learner","51","360852","0.0-19.0-3.0","1532716805111","9-268","4438","","","","false","341","568","571","639","","[649.81,551.85],[636.69,707.53]","true","null"
"","learner","52","368652","0.0-19.0-4.0","1532716805111","9-268","7799","","","","false","345","461","286","407","[380.8,394.18],[431.37,299.06]","","true","null"
"","check_point_button","53","370343","0.0-20.0","1532716805111","9-268","1689","","<p><font size='25'>¡FELICITACIONES! <br><br> TERMINASTE EL NIVEL 7</font></p>","0","","","","","","","","",""
"","learner","54","374031","0.0-21.0-0.0","1532716805111","9-268","3686","","","","false","507","631","587","626","[546.03,603.65]","[664.19,330.5]","true","null"
"","learner","55","380447","0.0-21.0-1.0","1532716805111","9-268","6413","","","","false","423","488","410","549","[477.11,431.66],[435.17,528.32]","","true","null"
"","learner","56","385231","0.0-21.0-2.0","1532716805111","9-268","4782","","","","false","554","618","398","552","[576.29,531.18],[597.47,418.73]","","true","null"
"","learner","57","394462","0.0-21.0-3.0","1532716805111","9-268","9229","","","","false","612","665","458","479","[635.4,467.98]","[504.75,754.69]","true","null"
"","learner","58","400094","0.0-21.0-4.0","1532716805111","9-268","5629","","","","false","212","470","557","667","","[635.02,658.85],[542.58,562.49]","true","null"
"","check_point_button","59","402215","0.0-22.0","1532716805111","9-268","2119","","<p><font size='25'>¡FELICITACIONES! <br><br> TERMINASTE EL NIVEL 8</font></p>","0","","","","","","","","",""
"","learner","60","405254","0.0-23.0-0.0","1532716805111","9-268","3038","","","","false","472","659","483","607","","[541.86,752.44],[665.37,354.42]","true","null"
"","learner","61","409406","0.0-23.0-1.0","1532716805111","9-268","4150","","","","false","406","441","395","433","[422.18,411.37]","[622,720.05]","true","null"
"","learner","62","413014","0.0-23.0-2.0","1532716805111","9-268","3606","","","","false","451","484","600","620","[463.49,607.24]","[355.61,499.61]","true","null"
"","learner","63","418798","0.0-23.0-3.0","1532716805111","9-268","5781","","","","false","475","628","565","761","[607.06,741.9],[483.45,579.12]","","true","null"
"","learner","64","423814","0.0-23.0-4.0","1532716805111","9-268","5014","","","","false","557","698","349","454","[688.39,361.67],[571.72,439.88]","","true","null"
"","check_point_button","65","426711","0.0-24.0","1532716805111","9-268","2896","","<p><font size='25'>¡FELICITACIONES! <br><br> TERMINASTE EL NIVEL 9</font></p>","0","","","","","","","","",""
"","learner","66","431017","0.0-25.0-0.0","1532716805111","9-268","4303","","","","false","375","510","466","590","","[724.16,582.98],[614.72,660.86]","true","null"
"","learner","67","439122","0.0-25.0-1.0","1532716805111","9-268","8103","","","","false","392","630","388","474","[593.63,445.91],[440.28,399.42]","","true","null"
"","learner","68","443153","0.0-25.0-2.0","1532716805111","9-268","4030","","","","false","516","550","238","302","[531.29,271.18]","[382.28,502.06]","true","null"
"","learner","69","447905","0.0-25.0-3.0","1532716805111","9-268","4751","","","","false","508","599","495","518","[551.78,501.43]","[370.45,428.77]","true","null"
"","learner","70","454018","0.0-25.0-4.0","1532716805111","9-268","6110","","","","false","424","484","551","582","[451.76,564.79]","[425.45,436.46]","true","null"
"","check_point_button","71","469770","0.0-26.0","1532716805111","9-268","15752","","<p align='center' style='font-size:30px;' > COMPLETASTE TODOS LOS NIVELES  <br><br> ¡FELICITACIONES!<br><br> PRESIONA CUALQUIER TECLA PARA TERMINAR</p>","0","","","","","","","","",""
