"success","trial_type","trial_index","time_elapsed","internal_node_id","start_time","Id","rt","responses","stimulus","button_pressed","Prueba","X_left","X_right","Y_top","Y_bottom","Circles","Crosses","Consistency","key_press"
"true","fullscreen","0","4520","0.0-0.0","1532716915867","9-270","","","","","","","","","","","","",""
"","survey-text","1","13646","0.0-1.0","1532716915867","9-270","9123","{""Q0"":""9-270""}","","","","","","","","","","",""
"","my_image_button","2","28133","0.0-2.0-0.0","1532716915867","9-270","14485","","img/caja.png","0","","","","","","","","",""
"","my_image_button","3","97408","0.0-2.0-1.0","1532716915867","9-270","69273","","img/caja_con_ejemplos.png","0","","","","","","","","",""
"","my_image_button","4","110376","0.0-2.0-2.0","1532716915867","9-270","12967","","","0","","","","","","","","",""
"","learner","5","153072","0.0-3.0-0.0","1532716915867","9-270","42687","","","","true","363","550","498","650","[440.5,515.63],[515.33,629.98]","","true","null"
"","learner","6","167626","0.0-3.0-1.0","1532716915867","9-270","14552","","","","true","670","865","449","641","[734.9,543.38]","[703.68,322.5]","true","null"
"","learner","7","175506","0.0-3.0-2.0","1532716915867","9-270","7878","","","","true","348","536","421","563","","[449.07,283.55],[663.91,578.58]","true","null"
"","learner","8","183979","0.0-3.0-3.0","1532716915867","9-270","8471","","","","true","319","538","346","503","[355.47,411.4]","[349.73,762.04]","true","null"
"","check_point_button","9","216211","0.0-4.0","1532716915867","9-270","32231","","<p><font size='25px'>ENTONCES, ¿QUÉ TENÉS QUE HACER? </font></p>","0","","","","","","","","",""
"","html-button-response","10","220635","0.0-5.0","1532716915867","9-270","4422","","<p align='center' style='font-size:25px;' > HAY 10 NIVELES <br> ¿ESTÁS LISTO/A PARA EMPEZAR? </p>","0","","","","","","","","",""
"","learner","11","229365","0.0-6.0-0.0","1532716915867","9-270","8729","","","","false","330","508","438","542","[356.4,463.35]","[295.46,596.09]","true","null"
"","learner","12","245030","0.0-6.0-1.0","1532716915867","9-270","15663","","","","false","587","702","387","549","","[508.14,468.67],[725.79,406.23]","true","null"
"","learner","13","252742","0.0-6.0-2.0","1532716915867","9-270","7708","","","","false","525","712","486","630","[543.25,544.47]","[615.57,345.65]","true","null"
"","learner","14","262149","0.0-6.0-3.0","1532716915867","9-270","9407","","","","false","382","581","345","494","[425.35,411.57]","[591.72,511.58]","true","null"
"","learner","15","271357","0.0-6.0-4.0","1532716915867","9-270","9207","","","","false","381","553","426","577","","[392.95,339.57],[429.08,595.24]","true","null"
"","check_point_button","16","274398","0.0-7.0","1532716915867","9-270","3039","","<p><font size='25'>¡FELICITACIONES! <br><br> TERMINASTE EL NIVEL 1</font></p>","0","","","","","","","","",""
"","learner","17","286608","0.0-8.0-0.0","1532716915867","9-270","12209","","","","false","352","534","510","649","","[269.06,494.61],[478.1,663.02]","true","null"
"","learner","18","294680","0.0-8.0-1.0","1532716915867","9-270","8070","","","","false","483","660","522","657","","[398.57,655.31],[585.46,458.55]","true","null"
"","learner","19","311161","0.0-8.0-2.0","1532716915867","9-270","16479","","","","false","410","593","444","577","","[359.57,421.5],[578.52,597.76]","true","null"
"","learner","20","321304","0.0-8.0-3.0","1532716915867","9-270","10141","","","","false","340","639","372","592","[376.18,571.14],[377.68,407.82]","","true","null"
"","learner","21","328481","0.0-8.0-4.0","1532716915867","9-270","7174","","","","false","516","578","206","275","","[452.34,268.48],[612.46,220.35]","true","null"
"","check_point_button","22","330113","0.0-9.0","1532716915867","9-270","1631","","<p><font size='25'>¡FELICITACIONES! <br><br> TERMINASTE EL NIVEL 2</font></p>","0","","","","","","","","",""
"","learner","23","337184","0.0-10.0-0.0","1532716915867","9-270","7070","","","","false","539","748","500","666","[558.28,638.24],[576.9,531.26]","","true","null"
"","learner","24","344536","0.0-10.0-1.0","1532716915867","9-270","7350","","","","false","217","419","308","453","[250.61,354.83]","[374.97,245.53]","true","null"
"","learner","25","350449","0.0-10.0-2.0","1532716915867","9-270","5913","","","","false","584","767","564","685","","[710.28,545.93],[524.51,661.61]","true","null"
"","learner","26","387058","0.0-10.0-3.0","1532716915867","9-270","36607","","","","false","493","763","442","629","[700,495.05],[611.36,540.92]","","true","null"
"","learner","27","394626","0.0-10.0-4.0","1532716915867","9-270","7567","","","","false","217","558","149","432","[430.84,353.75],[229.46,278.53]","","true","null"
"","check_point_button","28","395842","0.0-11.0","1532716915867","9-270","1214","","<p><font size='25'>¡FELICITACIONES! <br><br> TERMINASTE EL NIVEL 3</font></p>","0","","","","","","","","",""
"","learner","29","401858","0.0-12.0-0.0","1532716915867","9-270","6014","","","","false","582","732","263","375","","[695.72,213.34],[773.05,369.33]","true","null"
"","learner","30","415077","0.0-12.0-1.0","1532716915867","9-270","13217","","","","false","221","409","395","552","[272.36,485.89]","[533.93,265.2]","true","null"
"","learner","31","424093","0.0-12.0-2.0","1532716915867","9-270","9015","","","","false","415","587","355","517","[471.22,430.79]","[473.83,554.19]","true","null"
"","learner","32","435605","0.0-12.0-3.0","1532716915867","9-270","11510","","","","false","645","816","561","745","[654.39,726.07]","[538.23,522.08]","true","null"
"","learner","33","445374","0.0-12.0-4.0","1532716915867","9-270","9766","","","","false","424","673","461","709","[580.22,572.62],[470.9,659.97]","","true","null"
"","check_point_button","34","446685","0.0-13.0","1532716915867","9-270","1311","","<p><font size='25'>¡FELICITACIONES! <br><br> TERMINASTE EL NIVEL 4</font></p>","0","","","","","","","","",""
"","learner","35","454805","0.0-14.0-0.0","1532716915867","9-270","8119","","","","false","455","593","585","705","","[345.15,589.25],[611.73,680.97]","true","null"
"","learner","36","496640","0.0-14.0-1.0","1532716915867","9-270","41834","","","","false","548","728","341","473","","[487.26,448.74],[651.89,291.36]","true","null"
"","learner","37","502024","0.0-14.0-2.0","1532716915867","9-270","5382","","","","false","256","436","350","464","","[363.97,316.06],[205.17,430.25]","true","null"
"","learner","38","507072","0.0-14.0-3.0","1532716915867","9-270","5047","","","","false","477","717","402","585","","[709.95,366.9],[418.57,584.8]","true","null"
"","learner","39","514400","0.0-14.0-4.0","1532716915867","9-270","7327","","","","false","489","858","275","689","[527.91,367.21],[513.71,664.16]","","true","null"
"","check_point_button","40","516848","0.0-15.0","1532716915867","9-270","2446","","<p><font size='25'>¡FELICITACIONES! <br><br> TERMINASTE EL NIVEL 5</font></p>","0","","","","","","","","",""
"","html-button-response","41","521760","0.0-16.0","1532716915867","9-270","4911","","<p align='center' style='font-size:25px;' > ¡ACORDATE DE QUE ALGUIEN TE DEJÓ ESTAS PISTAS PARA QUE ENCUENTRES LA CAJA! </p>","0","","","","","","","","",""
"","learner","42","531728","0.0-17.0-0.0","1532716915867","9-270","9967","","","","false","576","830","419","640","[596.28,477.87],[604.1,606.17]","","true","null"
"","learner","43","538787","0.0-17.0-1.0","1532716915867","9-270","7056","","","","false","753","936","223","375","[771.12,294.2]","[593.8,567.25]","true","null"
"","learner","44","547939","0.0-17.0-2.0","1532716915867","9-270","9150","","","","false","594","787","299","474","[598.5,452.91],[726.59,338.99]","","true","null"
"","learner","45","552914","0.0-17.0-3.0","1532716915867","9-270","4973","","","","false","618","732","548","641","[625.51,604.54]","[480.62,776.34]","true","null"
"","learner","46","560699","0.0-17.0-4.0","1532716915867","9-270","7782","","","","false","700","866","433","593","[736.34,539.08]","[528.43,264.6]","true","null"
"","check_point_button","47","563651","0.0-18.0","1532716915867","9-270","2951","","<p><font size='25'>¡FELICITACIONES! <br><br> TERMINASTE EL NIVEL 6</font></p>","0","","","","","","","","",""
"","learner","48","575451","0.0-19.0-0.0","1532716915867","9-270","11798","","","","false","514","694","506","677","[621.46,579.6],[535.54,658.09]","","true","null"
"","learner","49","581674","0.0-19.0-1.0","1532716915867","9-270","6221","","","","false","554","760","441","640","[634.24,602.12],[572.72,505.06]","","true","null"
"","learner","50","592139","0.0-19.0-2.0","1532716915867","9-270","10463","","","","false","614","832","593","772","[755.31,733.62],[635.92,624.63]","","true","null"
"","learner","51","598506","0.0-19.0-3.0","1532716915867","9-270","6367","","","","false","424","547","567","674","[441.21,617.32]","[359.13,541.47]","true","null"
"","learner","52","603893","0.0-19.0-4.0","1532716915867","9-270","5384","","","","false","458","526","641","707","","[474.01,726.52],[475.75,587.26]","true","null"
"","check_point_button","53","606381","0.0-20.0","1532716915867","9-270","2487","","<p><font size='25'>¡FELICITACIONES! <br><br> TERMINASTE EL NIVEL 7</font></p>","0","","","","","","","","",""
"","learner","54","611117","0.0-21.0-0.0","1532716915867","9-270","4735","","","","false","493","691","413","599","[572.58,463.72],[511.66,576.28]","","true","null"
"","learner","55","615077","0.0-21.0-1.0","1532716915867","9-270","3959","","","","false","576","681","454","551","[590.52,513.07]","[678.05,364.38]","true","null"
"","learner","56","619741","0.0-21.0-2.0","1532716915867","9-270","4662","","","","false","584","696","471","559","[589.25,503.79]","[584.04,690.46]","true","null"
"","learner","57","623437","0.0-21.0-3.0","1532716915867","9-270","3695","","","","false","259","364","568","698","","[337.65,486.07],[241.48,734.54]","true","null"
"","learner","58","628517","0.0-21.0-4.0","1532716915867","9-270","5078","","","","false","464","588","330","458","[481.61,388.29]","[367.03,502.15]","true","null"
"","check_point_button","59","629956","0.0-22.0","1532716915867","9-270","1439","","<p><font size='25'>¡FELICITACIONES! <br><br> TERMINASTE EL NIVEL 8</font></p>","0","","","","","","","","",""
"","learner","60","634813","0.0-23.0-0.0","1532716915867","9-270","4855","","","","false","297","440","478","600","[314.42,538.43]","[251.86,694.05]","true","null"
"","learner","61","639084","0.0-23.0-1.0","1532716915867","9-270","4269","","","","false","374","536","502","631","[415.16,560.03]","[585.15,358.61]","true","null"
"","learner","62","643021","0.0-23.0-2.0","1532716915867","9-270","3935","","","","false","458","569","619","719","[467.09,680.42]","[340.23,545.32]","true","null"
"","learner","63","647685","0.0-23.0-3.0","1532716915867","9-270","4663","","","","false","476","609","271","382","[508.62,333.1]","[565.78,515.55]","true","null"
"","learner","64","652773","0.0-23.0-4.0","1532716915867","9-270","5085","","","","false","257","669","170","518","[450.05,243.79],[372.25,438.05]","","true","null"
"","check_point_button","65","655030","0.0-24.0","1532716915867","9-270","2256","","<p><font size='25'>¡FELICITACIONES! <br><br> TERMINASTE EL NIVEL 9</font></p>","0","","","","","","","","",""
"","learner","66","659477","0.0-25.0-0.0","1532716915867","9-270","4446","","","","false","384","565","602","744","[428.24,675.43]","[469.35,382.84]","true","null"
"","learner","67","664479","0.0-25.0-1.0","1532716915867","9-270","5001","","","","false","461","544","568","640","","[567.21,631.68],[426.4,559.69]","true","null"
"","learner","68","668719","0.0-25.0-2.0","1532716915867","9-270","4239","","","","false","492","618","414","523","[497.8,453.03]","[462.04,307.6]","true","null"
"","learner","69","672431","0.0-25.0-3.0","1532716915867","9-270","3711","","","","false","542","693","452","573","[569.56,506.91]","[521.56,660.18]","true","null"
"","learner","70","677127","0.0-25.0-4.0","1532716915867","9-270","4695","","","","false","530","780","473","654","[684.95,497.42],[570.54,546.65]","","true","null"
"","check_point_button","71","690640","0.0-26.0","1532716915867","9-270","13511","","<p align='center' style='font-size:30px;' > COMPLETASTE TODOS LOS NIVELES  <br><br> ¡FELICITACIONES!<br><br> PRESIONA CUALQUIER TECLA PARA TERMINAR</p>","0","","","","","","","","",""
