success,trial_type,trial_index,time_elapsed,internal_node_id,start_time,Id,rt,responses,stimulus,button_pressed,Prueba,X_left,X_right,Y_top,Y_bottom,Circles,Crosses,Consistency,key_press
true,fullscreen,0,2182,0.0-0.0,1528668148398,109-7,,,,,,,,,,,,,
,survey-text,1,17077,0.0-1.0,1528668148398,109-7,14892,"{""Q0"":""109-7""}",,,,,,,,,,,
,my_image_button,2,31389,0.0-2.0-0.0,1528668148398,109-7,14309,,img/caja.png,0,,,,,,,,,
,my_image_button,3,43454,0.0-2.0-1.0,1528668148398,109-7,12062,,img/caja_con_ejemplos.png,0,,,,,,,,,
,my_image_button,4,51461,0.0-2.0-2.0,1528668148398,109-7,8006,,,0,,,,,,,,,
,learner,5,80281,0.0-3.0-0.0,1528668148398,109-7,28813,,,,true,406,688,401,581,"[405.66,579.99],[533.77,650.1]",,false,null
,learner,6,115913,0.0-3.0-1.0,1528668148398,109-7,35629,,,,true,681,918,536,702,"[498.94,585.34]","[677.54,701.59]",false,null
,learner,7,156450,0.0-3.0-2.0,1528668148398,109-7,40535,,,,true,257,528,566,703,,"[565.71,613.79],[252.4,699.3]",true,null
,learner,8,174498,0.0-3.0-3.0,1528668148398,109-7,18045,,,,true,376,677,383,577,"[372.07,575.08]","[546.32,286.87]",false,null
,check_point_button,9,198685,0.0-4.0,1528668148398,109-7,24186,,"<p><font size='25px'>ENTONCES, ¿QUÉ TENÉS QUE HACER? </font></p>",1,,,,,,,,,
,html-button-response,10,206373,0.0-5.0,1528668148398,109-7,7687,,<p align='center' style='font-size:25px;' > HAY 10 NIVELES <br> ¿ESTÁS LISTO/A PARA EMPEZAR? </p>,0,,,,,,,,,
,learner,11,216934,0.0-6.0-0.0,1528668148398,109-7,10558,,,,false,449,727,461,634,"[450.11,629.65]","[572.2,730.95]",true,null
,learner,12,222142,0.0-6.0-1.0,1528668148398,109-7,5205,,,,false,395,644,603,735,,"[397.58,731.6],[536.65,508.37]",false,null
,learner,13,235614,0.0-6.0-2.0,1528668148398,109-7,13471,,,,false,585,880,527,674,,"[574.37,672.66],[442.84,386.8]",true,null
,learner,14,257967,0.0-6.0-3.0,1528668148398,109-7,22350,,,,false,473,804,317,474,,"[471.57,474.32],[595.89,514.57]",true,null
,learner,15,273514,0.0-6.0-4.0,1528668148398,109-7,15545,,,,false,475,750,111,298,"[760.05,413.15],[754.88,296.35]",,false,null
,check_point_button,16,282946,0.0-7.0,1528668148398,109-7,9431,,<p><font size='25'>¡FELICITACIONES! <br><br> TERMINASTE EL NIVEL 1</font></p>,0,,,,,,,,,
,learner,17,294481,0.0-8.0-0.0,1528668148398,109-7,11533,,,,false,208,517,295,446,,"[646.61,618.09],[212.36,290.83]",true,null
,learner,18,301602,0.0-8.0-1.0,1528668148398,109-7,7118,,,,false,391,694,379,536,"[697.58,540.32]","[758.66,460.4]",false,null
,learner,19,309122,0.0-8.0-2.0,1528668148398,109-7,7518,,,,false,473,720,279,393,"[714.2,387.1]","[620.14,508.51]",true,null
,learner,20,315330,0.0-8.0-3.0,1528668148398,109-7,6207,,,,false,443,670,377,490,"[364.04,508.17]","[437.63,372.21]",false,null
,learner,21,334948,0.0-8.0-4.0,1528668148398,109-7,19616,,,,false,262,605,529,713,,"[496.71,484.51],[256.15,704.34]",true,null
,check_point_button,22,341581,0.0-9.0,1528668148398,109-7,6631,,<p><font size='25'>¡FELICITACIONES! <br><br> TERMINASTE EL NIVEL 2</font></p>,0,,,,,,,,,
,learner,23,362397,0.0-10.0-0.0,1528668148398,109-7,20812,,,,false,255,496,339,552,,"[491.98,416.49],[699.31,596.39]",false,null
,learner,24,377861,0.0-10.0-1.0,1528668148398,109-7,15463,,,,false,164,505,387,503,"[498.87,373.44],[504.11,496.28]",,false,null
,learner,25,386029,0.0-10.0-2.0,1528668148398,109-7,8167,,,,false,321,631,267,431,"[633.59,428.17]","[446.96,200.91]",false,null
,learner,26,393184,0.0-10.0-3.0,1528668148398,109-7,7153,,,,false,403,748,103,256,"[697.88,436.89]","[743.75,267.83]",false,null
,learner,27,397504,0.0-10.0-4.0,1528668148398,109-7,4318,,,,false,428,732,458,589,,"[500.99,337.18],[730.36,463.07]",false,null
,check_point_button,28,399552,0.0-11.0,1528668148398,109-7,2046,,<p><font size='25'>¡FELICITACIONES! <br><br> TERMINASTE EL NIVEL 3</font></p>,0,,,,,,,,,
,learner,29,404447,0.0-12.0-0.0,1528668148398,109-7,4894,,,,false,512,764,521,640,"[407.89,597.81],[511.46,520.05]",,false,null
,learner,30,410296,0.0-12.0-1.0,1528668148398,109-7,5847,,,,false,335,531,450,583,"[531.88,442.03]","[441.58,302.1]",false,null
,learner,31,416336,0.0-12.0-2.0,1528668148398,109-7,6038,,,,false,571,838,630,744,,"[568.82,737.53],[248.59,583.31]",true,null
,learner,32,430872,0.0-12.0-3.0,1528668148398,109-7,14535,,,,false,286,511,505,609,"[285.04,559.92],[357.34,383.13]",,false,null
,learner,33,436991,0.0-12.0-4.0,1528668148398,109-7,6117,,,,false,368,667,189,317,"[367.39,307.48],[414.63,436.14]",,false,null
,check_point_button,34,56440,0.0-13.0,1528668618238,109-7-b,3016,,<p><font size='25'>¡FELICITACIONES! <br><br> TERMINASTE EL NIVEL 4</font></p>,0,,,,,,,,,
,learner,35,67266,0.0-14.0-0.0,1528668618238,109-7-b,10825,,,,false,464,796,437,553,"[458.78,551.13]","[438.38,433.28]",false,null
,learner,36,76778,0.0-14.0-1.0,1528668618238,109-7-b,9510,,,,false,226,520,270,438,"[745.06,344.38]","[510.78,267.42]",false,null
,learner,37,81841,0.0-14.0-2.0,1528668618238,109-7-b,5062,,,,false,277,601,527,663,,"[280.31,524.09],[659.25,273.26]",true,null
,learner,38,86833,0.0-14.0-3.0,1528668618238,109-7-b,4990,,,,false,294,631,420,605,"[544.26,357.17],[628.59,415.53]",,false,null
,learner,39,91722,0.0-14.0-4.0,1528668618238,109-7-b,4887,,,,false,398,727,255,425,"[395.73,419.83],[320.59,509.42]",,false,null
,check_point_button,40,94761,0.0-15.0,1528668618238,109-7-b,3039,,<p><font size='25'>¡FELICITACIONES! <br><br> TERMINASTE EL NIVEL 5</font></p>,0,,,,,,,,,
,html-button-response,41,99642,0.0-16.0,1528668618238,109-7-b,4879,,<p align='center' style='font-size:25px;' > ¡ACORDATE DE QUE ALGUIEN TE DEJÓ ESTAS PISTAS PARA QUE ENCUENTRES LA CAJA! </p>,0,,,,,,,,,
,learner,42,104954,0.0-17.0-0.0,1528668618238,109-7-b,5310,,,,false,494,780,561,691,,"[643.07,772.05],[495,560.08]",true,null
,learner,43,110874,0.0-17.0-1.0,1528668618238,109-7-b,5918,,,,false,271,551,517,678,,"[760.72,248.95],[542.01,507.49]",true,null
,learner,44,119682,0.0-17.0-2.0,1528668618238,109-7-b,8806,,,,false,581,837,345,480,"[491.12,491.83]","[568.13,335.67]",false,null
,learner,45,125781,0.0-17.0-3.0,1528668618238,109-7-b,6097,,,,false,378,682,483,643,"[678.92,483.31]","[665.17,308.85]",true,null
,learner,46,130868,0.0-17.0-4.0,1528668618238,109-7-b,5086,,,,false,229,453,584,741,"[374.91,510]","[448.14,574.03]",false,null
,check_point_button,47,133365,0.0-18.0,1528668618238,109-7-b,2496,,<p><font size='25'>¡FELICITACIONES! <br><br> TERMINASTE EL NIVEL 6</font></p>,0,,,,,,,,,
,learner,48,138108,0.0-19.0-0.0,1528668618238,109-7-b,4742,,,,false,207,576,519,703,"[576.66,514.95],[471.01,441.33]",,false,null
,learner,49,146037,0.0-19.0-1.0,1528668618238,109-7-b,7926,,,,false,284,573,375,517,"[523.37,619.02],[565.47,372.99]",,false,null
,learner,50,149701,0.0-19.0-2.0,1528668618238,109-7-b,3663,,,,false,428,638,523,638,"[715.34,747.06]","[640.2,517.91]",false,null
,learner,51,158268,0.0-19.0-3.0,1528668618238,109-7-b,8566,,,,false,251,521,542,643,,"[394.42,656.82],[519.88,537.38]",true,null
,learner,52,163357,0.0-19.0-4.0,1528668618238,109-7-b,5086,,,,false,396,632,411,554,"[397.92,548.63],[367.32,659.96]",,false,null
,check_point_button,53,166356,0.0-20.0,1528668618238,109-7-b,2999,,<p><font size='25'>¡FELICITACIONES! <br><br> TERMINASTE EL NIVEL 7</font></p>,0,,,,,,,,,
,learner,54,175677,0.0-21.0-0.0,1528668618238,109-7-b,9319,,,,false,293,649,312,533,"[568.02,251.09],[647.52,529.63]",,false,null
,learner,55,179870,0.0-21.0-1.0,1528668618238,109-7-b,4190,,,,false,449,660,363,533,,"[439.54,426.97],[664.37,357.74]",true,null
,learner,56,186703,0.0-21.0-2.0,1528668618238,109-7-b,6832,,,,false,586,860,334,485,"[578.25,468.43],[387.67,546.01]",,false,null
,learner,57,190727,0.0-21.0-3.0,1528668618238,109-7-b,4021,,,,false,332,678,642,825,"[432.07,545.91]","[682.08,637.77]",false,null
,learner,58,194783,0.0-21.0-4.0,1528668618238,109-7-b,4055,,,,false,433,790,615,724,"[452.01,588.78],[431.35,703.83]",,false,null
,check_point_button,59,196927,0.0-22.0,1528668618238,109-7-b,2142,,<p><font size='25'>¡FELICITACIONES! <br><br> TERMINASTE EL NIVEL 8</font></p>,0,,,,,,,,,
,learner,60,201520,0.0-23.0-0.0,1528668618238,109-7-b,4592,,,,false,302,652,630,757,"[541.46,583.59],[652.98,623.45]",,false,null
,learner,61,206575,0.0-23.0-1.0,1528668618238,109-7-b,5053,,,,false,299,566,559,712,"[633.17,656.36],[572.1,557.35]",,false,null
,learner,62,211759,0.0-23.0-2.0,1528668618238,109-7-b,5182,,,,false,328,637,608,758,,"[634.27,760.38],[358.06,486.03]",true,null
,learner,63,216088,0.0-23.0-3.0,1528668618238,109-7-b,4328,,,,false,293,554,555,744,,"[545.08,749.83],[513.94,476.94]",true,null
,learner,64,222959,0.0-23.0-4.0,1528668618238,109-7-b,6869,,,,false,261,532,766,973,"[647.3,523.31],[765.46,577.41]",,false,null
,check_point_button,65,224360,0.0-24.0,1528668618238,109-7-b,1398,,<p><font size='25'>¡FELICITACIONES! <br><br> TERMINASTE EL NIVEL 9</font></p>,1,,,,,,,,,
