"success","trial_type","trial_index","time_elapsed","internal_node_id","start_time","Id","rt","responses","stimulus","button_pressed","Prueba","X_left","X_right","Y_top","Y_bottom","Circles","Crosses","Consistency","key_press"
"true","fullscreen","0","2715","0.0-0.0","1528573237646","19-11","","","","","","","","","","","","",""
"","survey-text","1","13628","0.0-1.0","1528573237646","19-11","10909","{""Q0"":""19-11""}","","","","","","","","","","",""
"","my_image_button","2","26475","0.0-2.0-0.0","1528573237646","19-11","12844","","img/caja.png","0","","","","","","","","",""
"","my_image_button","3","51971","0.0-2.0-1.0","1528573237646","19-11","25495","","img/caja_con_ejemplos.png","0","","","","","","","","",""
"","my_image_button","4","57898","0.0-2.0-2.0","1528573237646","19-11","5926","","","0","","","","","","","","",""
"","learner","5","68702","0.0-3.0-0.0","1528573237646","19-11","10795","","","","true","449","551","601","676","[448.01,599.35],[547.16,675.34]","","false","null"
"","learner","6","75141","0.0-3.0-1.0","1528573237646","19-11","6438","","","","true","442","472","583","690","[440.79,687.56],[470.39,582.34]","","false","null"
"","learner","7","93981","0.0-3.0-2.0","1528573237646","19-11","18839","","","","true","678","735","276","485","","[710.85,517.62],[704.13,251.04]","true","null"
"","learner","8","117094","0.0-3.0-3.0","1528573237646","19-11","23111","","","","true","377","466","720","803","[374.54,719.17]","[319.04,609.6]","false","null"
"","check_point_button","9","140619","0.0-4.0","1528573237646","19-11","23523","","<p><font size='25px'>ENTONCES, ¿QUÉ TENÉS QUE HACER? </font></p>","0","","","","","","","","",""
"","html-button-response","10","142305","0.0-5.0","1528573237646","19-11","1686","","<p align='center' style='font-size:25px;' > HAY 10 NIVELES <br> ¿ESTÁS LISTO/A PARA EMPEZAR? </p>","0","","","","","","","","",""
"","learner","11","150410","0.0-6.0-0.0","1528573237646","19-11","8102","","","","false","320","517","299","568","","[531.17,584.49],[300.84,267.89]","true","null"
"","learner","12","156817","0.0-6.0-1.0","1528573237646","19-11","6405","","","","false","265","580","267","549","","[231.37,562.37],[595.16,257.78]","true","null"
"","learner","13","162706","0.0-6.0-2.0","1528573237646","19-11","5887","","","","false","512","614","320","462","[512.45,463.47],[613.72,321.34]","","false","null"
"","learner","14","177370","0.0-6.0-3.0","1528573237646","19-11","14662","","","","false","379","480","418","453","[383.04,447.28],[478.84,418.41]","","true","null"
"","learner","15","184377","0.0-6.0-4.0","1528573237646","19-11","7006","","","","false","443","505","324","421","[445.31,318.7],[502.58,420.84]","","false","null"
"","check_point_button","16","188442","0.0-7.0","1528573237646","19-11","4061","","<p><font size='25'>¡FELICITACIONES! <br><br> TERMINASTE EL NIVEL 1</font></p>","0","","","","","","","","",""
"","learner","17","196730","0.0-8.0-0.0","1528573237646","19-11","8287","","","","false","233","335","361","606","","[230.79,626.35],[334.46,344.13]","true","null"
"","learner","18","202317","0.0-8.0-1.0","1528573237646","19-11","5585","","","","false","432","592","589","738","[591.51,581.73]","[420.6,776.23]","false","null"
"","learner","19","220205","0.0-8.0-2.0","1528573237646","19-11","17888","","","","false","426","626","430","602","[625.16,429.45]","[414.07,762.4]","false","null"
"","learner","20","229236","0.0-8.0-3.0","1528573237646","19-11","9030","","","","false","210","392","370","616","[388.73,369.84],[387.36,618.47]","","false","null"
"","learner","21","237580","0.0-8.0-4.0","1528573237646","19-11","8342","","","","false","264","315","347","409","","[328.22,336.07],[256.23,425.61]","true","null"
"","check_point_button","22","239757","0.0-9.0","1528573237646","19-11","2174","","<p><font size='25'>¡FELICITACIONES! <br><br> TERMINASTE EL NIVEL 2</font></p>","0","","","","","","","","",""
"","learner","23","245252","0.0-10.0-0.0","1528573237646","19-11","5495","","","","false","313","527","351","710","","[307.66,722.46],[535.49,337.1]","true","null"
"","learner","24","249132","0.0-10.0-1.0","1528573237646","19-11","3878","","","","false","246","360","261","306","[249.55,302.81],[358.1,260.31]","","false","null"
"","learner","25","253429","0.0-10.0-2.0","1528573237646","19-11","4296","","","","false","473","571","252","433","","[497.42,465.31],[589.07,231.21]","true","null"
"","learner","26","260412","0.0-10.0-3.0","1528573237646","19-11","6981","","","","false","417","512","488","545","[511.06,543.7],[418.09,486.42]","","false","null"
"","learner","27","265768","0.0-10.0-4.0","1528573237646","19-11","5352","","","","false","571","628","462","580","[568.24,582.05],[630.68,465.1]","","false","null"
"","check_point_button","28","266839","0.0-11.0","1528573237646","19-11","1071","","<p><font size='25'>¡FELICITACIONES! <br><br> TERMINASTE EL NIVEL 3</font></p>","0","","","","","","","","",""
"","learner","29","272423","0.0-12.0-0.0","1528573237646","19-11","5583","","","","false","499","601","428","564","[602.47,424.62]","[550.41,621.21]","false","null"
"","learner","30","277903","0.0-12.0-1.0","1528573237646","19-11","5478","","","","false","343","578","490","567","","[325.99,487.06],[590.45,561.41]","true","null"
"","learner","31","288423","0.0-12.0-2.0","1528573237646","19-11","10518","","","","false","601","709","273","449","[708.5,446.83],[600.55,271.55]","","false","null"
"","learner","32","292887","0.0-12.0-3.0","1528573237646","19-11","4462","","","","false","218","337","346","522","","[344.29,333.58],[212.39,531.58]","true","null"
"","learner","33","302607","0.0-12.0-4.0","1528573237646","19-11","9719","","","","false","519","556","544","659","[517.56,542.84],[554.53,657.32]","","false","null"
"","check_point_button","34","303552","0.0-13.0","1528573237646","19-11","943","","<p><font size='25'>¡FELICITACIONES! <br><br> TERMINASTE EL NIVEL 4</font></p>","0","","","","","","","","",""
"","learner","35","307688","0.0-14.0-0.0","1528573237646","19-11","4134","","","","false","364","566","555","679","[362.12,678.79]","[584.26,553.87]","false","null"
"","learner","36","312319","0.0-14.0-1.0","1528573237646","19-11","4631","","","","false","461","516","403","546","[515.65,545.55],[461.54,400.49]","","false","null"
"","learner","37","316871","0.0-14.0-2.0","1528573237646","19-11","4551","","","","false","420","504","452","530","[502.32,454.38]","[436.06,580.85]","true","null"
"","learner","38","320711","0.0-14.0-3.0","1528573237646","19-11","3838","","","","false","388","470","275","495","","[447.61,512.45],[387.86,261.6]","true","null"
"","learner","39","326122","0.0-14.0-4.0","1528573237646","19-11","5409","","","","false","174","570","289","727","","[491.29,757.98],[212.06,260.41]","true","null"
"","check_point_button","40","327722","0.0-15.0","1528573237646","19-11","1600","","<p><font size='25'>¡FELICITACIONES! <br><br> TERMINASTE EL NIVEL 5</font></p>","0","","","","","","","","",""
"","html-button-response","41","329786","0.0-16.0","1528573237646","19-11","2064","","<p align='center' style='font-size:25px;' > ¡ACORDATE DE QUE ALGUIEN TE DEJÓ ESTAS PISTAS PARA QUE ENCUENTRES LA CAJA! </p>","0","","","","","","","","",""
"","learner","42","334618","0.0-17.0-0.0","1528573237646","19-11","4831","","","","false","429","571","367","426","","[589.62,422.6],[409.07,359.14]","true","null"
"","learner","43","339754","0.0-17.0-1.0","1528573237646","19-11","5135","","","","false","433","528","383","503","[529.19,503.18],[431.88,381.41]","","false","null"
"","learner","44","344738","0.0-17.0-2.0","1528573237646","19-11","4982","","","","false","322","451","648","721","[322.02,721.49],[449.63,648.48]","","false","null"
"","learner","45","350834","0.0-17.0-3.0","1528573237646","19-11","6094","","","","false","454","559","442","549","[557.95,548.86],[451.94,441.78]","","false","null"
"","learner","46","356531","0.0-17.0-4.0","1528573237646","19-11","5695","","","","false","589","674","460","535","","[693.08,533.88],[577.31,448.94]","true","null"
"","check_point_button","47","357794","0.0-18.0","1528573237646","19-11","1263","","<p><font size='25'>¡FELICITACIONES! <br><br> TERMINASTE EL NIVEL 6</font></p>","0","","","","","","","","",""
"","learner","48","361483","0.0-19.0-0.0","1528573237646","19-11","3686","","","","false","430","498","538","636","[496.86,634.54],[426.67,539.59]","","false","null"
"","learner","49","366147","0.0-19.0-1.0","1528573237646","19-11","4662","","","","false","499","694","485","537","[693.59,534.1],[497.53,480.93]","","false","null"
"","learner","50","392813","0.0-19.0-2.0","1528573237646","19-11","26665","","","","false","485","544","402","550","","[484.91,562.22],[542.03,392.01]","true","null"
"","learner","51","397341","0.0-19.0-3.0","1528573237646","19-11","4527","","","","false","555","580","278","412","[577.36,413.14],[555.01,277.24]","","false","null"
"","learner","52","402413","0.0-19.0-4.0","1528573237646","19-11","5070","","","","false","422","545","229","354","[543.83,231.1],[421.62,354.74]","","false","null"
"","check_point_button","53","404566","0.0-20.0","1528573237646","19-11","2151","","<p><font size='25'>¡FELICITACIONES! <br><br> TERMINASTE EL NIVEL 7</font></p>","0","","","","","","","","",""
"","learner","54","409998","0.0-21.0-0.0","1528573237646","19-11","5429","","","","false","598","660","532","631","[659.92,631.56]","[593.07,518.42]","false","null"
"","learner","55","415885","0.0-21.0-1.0","1528573237646","19-11","5887","","","","false","291","361","269","338","","[368.77,259.85],[288.9,344.41]","true","null"
"","learner","56","420469","0.0-21.0-2.0","1528573237646","19-11","4582","","","","false","597","676","639","743","[596.05,637.65],[675.34,742.39]","","false","null"
"","learner","57","425750","0.0-21.0-3.0","1528573237646","19-11","5279","","","","false","350","586","502","705","[581.42,705.22]","[322.93,472.22]","false","null"
"","learner","58","429238","0.0-21.0-4.0","1528573237646","19-11","3486","","","","false","458","526","339","400","[525.83,401.82]","[449.23,324.68]","false","null"
"","check_point_button","59","430326","0.0-22.0","1528573237646","19-11","1087","","<p><font size='25'>¡FELICITACIONES! <br><br> TERMINASTE EL NIVEL 8</font></p>","0","","","","","","","","",""
"","learner","60","434686","0.0-23.0-0.0","1528573237646","19-11","4359","","","","false","450","620","277","414","","[638.79,414.42],[443.21,264.2]","true","null"
"","learner","61","438670","0.0-23.0-1.0","1528573237646","19-11","3983","","","","false","285","375","262","341","","[392.32,258.95],[272.52,350.29]","true","null"
"","learner","62","443158","0.0-23.0-2.0","1528573237646","19-11","4487","","","","false","393","623","384","533","[620.54,381.79]","[378.12,530.27]","false","null"
"","learner","63","447758","0.0-23.0-3.0","1528573237646","19-11","4599","","","","false","516","650","429","572","[649,424.65]","[490.4,601.35]","false","null"
"","learner","64","451969","0.0-23.0-4.0","1528573237646","19-11","4209","","","","false","296","435","436","520","[571.81,604.42]","[420,499.87]","false","null"
"","check_point_button","65","453297","0.0-24.0","1528573237646","19-11","1328","","<p><font size='25'>¡FELICITACIONES! <br><br> TERMINASTE EL NIVEL 9</font></p>","0","","","","","","","","",""
"","learner","66","457057","0.0-25.0-0.0","1528573237646","19-11","3757","","","","false","535","674","419","457","[532.14,418.66],[669.67,456.08]","","false","null"
"","learner","67","460329","0.0-25.0-1.0","1528573237646","19-11","3271","","","","false","387","498","254","404","[496.99,251.62],[387.05,404.02]","","false","null"
"","learner","68","464897","0.0-25.0-2.0","1528573237646","19-11","4567","","","","false","509","712","457","644","[710.47,643.38],[507.47,456.47]","","false","null"
"","learner","69","468762","0.0-25.0-3.0","1528573237646","19-11","3862","","","","false","604","627","448","590","[601.99,587.12],[625.22,448.06]","","false","null"
"","learner","70","474284","0.0-25.0-4.0","1528573237646","19-11","5521","","","","false","666","733","453","583","[732.95,582.21],[664.77,449.63]","","false","null"
"","check_point_button","71","480505","0.0-26.0","1528573237646","19-11","6219","","<p align='center' style='font-size:30px;' > COMPLETASTE TODOS LOS NIVELES  <br><br> ¡FELICITACIONES!<br><br> PRESIONA CUALQUIER TECLA PARA TERMINAR</p>","0","","","","","","","","",""
