"success","trial_type","trial_index","time_elapsed","internal_node_id","start_time","Id","rt","responses","stimulus","button_pressed","Prueba","X_left","X_right","Y_top","Y_bottom","Circles","Crosses","Consistency","key_press"
"true","fullscreen","0","4104","0.0-0.0","1528574208572","24-6","","","","","","","","","","","","",""
"","survey-text","1","11102","0.0-1.0","1528574208572","24-6","6995","{""Q0"":""24-6""}","","","","","","","","","","",""
"","my_image_button","2","41366","0.0-2.0-0.0","1528574208572","24-6","30264","","img/caja.png","0","","","","","","","","",""
"","my_image_button","3","68921","0.0-2.0-1.0","1528574208572","24-6","27553","","img/caja_con_ejemplos.png","0","","","","","","","","",""
"","my_image_button","4","70761","0.0-2.0-2.0","1528574208572","24-6","1839","","","0","","","","","","","","",""
"","learner","5","121146","0.0-3.0-0.0","1528574208572","24-6","50381","","","","true","409","602","469","571","[543.38,450.62],[426.03,667.47]","","false","null"
"","learner","6","137604","0.0-3.0-1.0","1528574208572","24-6","16456","","","","true","242","515","417","568","","[696.43,581.29],[511.98,406.54]","true","null"
"","learner","7","150716","0.0-3.0-2.0","1528574208572","24-6","13111","","","","true","87","358","695","819","[567.18,581.75],[681.69,680.01]","","false","null"
"","learner","8","160749","0.0-3.0-3.0","1528574208572","24-6","10030","","","","true","242","500","109","282","","[510.78,284.22],[749.3,447.97]","true","null"
"","check_point_button","9","163949","0.0-4.0","1528574208572","24-6","3199","","<p><font size='25px'>ENTONCES, ¿QUÉ TENÉS QUE HACER? </font></p>","1","","","","","","","","",""
"","html-button-response","10","173100","0.0-5.0","1528574208572","24-6","9151","","<p align='center' style='font-size:25px;' > HAY 10 NIVELES <br> ¿ESTÁS LISTO/A PARA EMPEZAR? </p>","0","","","","","","","","",""
"","learner","11","185957","0.0-6.0-0.0","1528574208572","24-6","12854","","","","false","330","513","726","914","[369.55,650.24],[507.51,716.53]","","false","null"
"","learner","12","199103","0.0-6.0-1.0","1528574208572","24-6","13144","","","","false","392","490","543","652","[406.78,648.91]","[391.17,539.94]","true","null"
"","learner","13","208279","0.0-6.0-2.0","1528574208572","24-6","9174","","","","false","148","742","626","886","","[747.45,616.66],[295.27,464.94]","true","null"
"","learner","14","215710","0.0-6.0-3.0","1528574208572","24-6","7429","","","","false","595","738","484","600","","[730.94,470.99],[576.65,696.56]","true","null"
"","learner","15","223383","0.0-6.0-4.0","1528574208572","24-6","7671","","","","false","318","549","310","464","[306.89,314.22],[409.13,461.74]","","false","null"
"","check_point_button","16","233624","0.0-7.0","1528574208572","24-6","10239","","<p><font size='25'>¡FELICITACIONES! <br><br> TERMINASTE EL NIVEL 1</font></p>","0","","","","","","","","",""
"","learner","17","248056","0.0-8.0-0.0","1528574208572","24-6","14429","","","","false","367","726","388","587","","[212.87,568.97],[726.93,380.36]","true","null"
"","learner","18","259761","0.0-8.0-1.0","1528574208572","24-6","11704","","","","false","276","589","458","664","","[580.91,445.67],[365.94,772.15]","true","null"
"","learner","19","264666","0.0-8.0-2.0","1528574208572","24-6","4903","","","","false","233","590","589","811","[587.7,568.22]","[458.19,217.79]","false","null"
"","learner","20","269617","0.0-8.0-3.0","1528574208572","24-6","4950","","","","false","399","642","673","870","[673.74,462.02]","[638.55,664.3]","false","null"
"","learner","21","275626","0.0-8.0-4.0","1528574208572","24-6","6006","","","","false","491","735","101","237","[717.4,233.65],[648.74,346.51]","","false","null"
"","check_point_button","22","280514","0.0-9.0","1528574208572","24-6","4888","","<p><font size='25'>¡FELICITACIONES! <br><br> TERMINASTE EL NIVEL 2</font></p>","0","","","","","","","","",""
"","learner","23","291306","0.0-10.0-0.0","1528574208572","24-6","10790","","","","false","154","701","391","887","[703.53,379.31]","[641.22,472.58]","false","null"
"","learner","24","300235","0.0-10.0-1.0","1528574208572","24-6","8927","","","","false","350","649","279","623","","[640,270.94],[570.8,701.08]","true","null"
"","learner","25","320949","0.0-10.0-2.0","1528574208572","24-6","20713","","","","false","188","703","167","495","[590.12,615.42],[696.18,498.91]","","false","null"
"","learner","26","328284","0.0-10.0-3.0","1528574208572","24-6","7334","","","","false","39","551","362","651","[556.44,344.8],[534.83,241.49]","","false","null"
"","learner","27","334349","0.0-10.0-4.0","1528574208572","24-6","6063","","","","false","287","652","242","478","","[283.74,475.24],[232.53,755.01]","true","null"
"","check_point_button","28","340446","0.0-11.0","1528574208572","24-6","6096","","<p><font size='25'>¡FELICITACIONES! <br><br> TERMINASTE EL NIVEL 3</font></p>","0","","","","","","","","",""
"","learner","29","351982","0.0-12.0-0.0","1528574208572","24-6","11534","","","","false","159","523","428","597","[341.55,511.08]","[265.76,280.95]","true","null"
"","learner","30","357166","0.0-12.0-1.0","1528574208572","24-6","5182","","","","false","176","483","299","689","","[486.68,679.2],[559.87,460.8]","true","null"
"","learner","31","365157","0.0-12.0-2.0","1528574208572","24-6","7990","","","","false","271","651","364","656","[635.55,652.69]","[450.41,557.61]","false","null"
"","learner","32","373973","0.0-12.0-3.0","1528574208572","24-6","8815","","","","false","578","741","460","542","[562.57,533.86],[432.56,685.93]","","false","null"
"","learner","33","416577","0.0-12.0-4.0","1528574208572","24-6","42601","","","","false","875","1187","285","445","[639.7,525.01],[548.92,603.5]","","false","null"
"","check_point_button","34","419329","0.0-13.0","1528574208572","24-6","2751","","<p><font size='25'>¡FELICITACIONES! <br><br> TERMINASTE EL NIVEL 4</font></p>","0","","","","","","","","",""
"","learner","35","428352","0.0-14.0-0.0","1528574208572","24-6","9021","","","","false","-552","5","773","1152","[557.63,369.55],[685.56,508.46]","","false","null"
"","learner","36","437779","0.0-14.0-1.0","1528574208572","24-6","9425","","","","false","8","700","591","971","[558.43,444.95],[701.31,579.14]","","false","null"
"","learner","37","451563","0.0-14.0-2.0","1528574208572","24-6","13783","","","","false","610","908","956","1381","[306.08,532.08]","[394.33,460.32]","false","null"
"","learner","38","457787","0.0-14.0-3.0","1528574208572","24-6","6222","","","","false","476","899","198","492","[464.15,491.68],[485.77,341.14]","","false","null"
"","learner","39","476644","0.0-14.0-4.0","1528574208572","24-6","18856","","","","false","381","653","442","820","[377.58,426.33]","[225.5,605.61]","false","null"
"","check_point_button","40","478620","0.0-15.0","1528574208572","24-6","1974","","<p><font size='25'>¡FELICITACIONES! <br><br> TERMINASTE EL NIVEL 5</font></p>","0","","","","","","","","",""
"","html-button-response","41","491156","0.0-16.0","1528574208572","24-6","12536","","<p align='center' style='font-size:25px;' > ¡ACORDATE DE QUE ALGUIEN TE DEJÓ ESTAS PISTAS PARA QUE ENCUENTRES LA CAJA! </p>","0","","","","","","","","",""
"","learner","42","499366","0.0-17.0-0.0","1528574208572","24-6","8208","","","","false","378","816","345","671","[350.65,600.19],[360.11,338.49]","","false","null"
"","learner","43","512965","0.0-17.0-1.0","1528574208572","24-6","13598","","","","false","-634","6","973","1395","[634.9,550.69],[598.08,649.64]","","false","null"
"","learner","44","537709","0.0-17.0-2.0","1528574208572","24-6","24743","","","","false","-714","3","-769","9","","[593.06,528.68],[707.09,775.47]","true","null"
"","learner","45","544917","0.0-17.0-3.0","1528574208572","24-6","7206","","","","false","364","941","307","913","[361.07,286.33]","[263.38,496.36]","false","null"
"","learner","46","557589","0.0-17.0-4.0","1528574208572","24-6","12671","","","","false","125","617","305","765","[620.68,297.88]","[774.21,467.74]","false","null"
"","check_point_button","47","580050","0.0-18.0","1528574208572","24-6","22459","","<p><font size='25'>¡FELICITACIONES! <br><br> TERMINASTE EL NIVEL 6</font></p>","1","","","","","","","","",""
