"success","trial_type","trial_index","time_elapsed","internal_node_id","start_time","Id","rt","responses","stimulus","button_pressed","Prueba","X_left","X_right","Y_top","Y_bottom","Circles","Crosses","Consistency","key_press"
"true","fullscreen","0","4217","0.0-0.0","1528659729541","72-5","","","","","","","","","","","","",""
"","survey-text","1","13934","0.0-1.0","1528659729541","72-5","9714","{""Q0"":""72-5""}","","","","","","","","","","",""
"","my_image_button","2","25429","0.0-2.0-0.0","1528659729541","72-5","11493","","img/caja.png","0","","","","","","","","",""
"","my_image_button","3","54949","0.0-2.0-1.0","1528659729541","72-5","29519","","img/caja_con_ejemplos.png","0","","","","","","","","",""
"","my_image_button","4","63360","0.0-2.0-2.0","1528659729541","72-5","8410","","","0","","","","","","","","",""
"","learner","5","76944","0.0-3.0-0.0","1528659729541","72-5","13578","","","","true","488","707","398","495","[690.37,492.95],[676.73,633.09]","","false","null"
"","learner","6","98816","0.0-3.0-1.0","1528659729541","72-5","21869","","","","true","872","1355","786","1105","[447.35,321.15]","[613.79,559.18]","false","null"
"","learner","7","109641","0.0-3.0-2.0","1528659729541","72-5","10823","","","","true","372","761","626","841","","[438.64,479.96],[671.9,382.64]","true","null"
"","learner","8","116440","0.0-3.0-3.0","1528659729541","72-5","6798","","","","true","424","674","716","892","[602.13,406.6]","[628.16,775.09]","false","null"
"","check_point_button","9","135484","0.0-4.0","1528659729541","72-5","19043","","<p><font size='25px'>ENTONCES, ¿QUÉ TENÉS QUE HACER? </font></p>","0","","","","","","","","",""
"","html-button-response","10","146380","0.0-5.0","1528659729541","72-5","10894","","<p align='center' style='font-size:25px;' > HAY 10 NIVELES <br> ¿ESTÁS LISTO/A PARA EMPEZAR? </p>","0","","","","","","","","",""
"","learner","11","156845","0.0-6.0-0.0","1528659729541","72-5","10462","","","","false","317","716","574","793","[569.43,581.82],[506.64,734.95]","","true","null"
"","learner","12","163044","0.0-6.0-1.0","1528659729541","72-5","6198","","","","false","316","692","682","905","","[331.23,584.1],[530.36,708.99]","false","null"
"","learner","13","183997","0.0-6.0-2.0","1528659729541","72-5","20950","","","","false","226","922","277","607","[706.17,338.47],[619.14,665.84]","","false","null"
"","learner","14","192860","0.0-6.0-3.0","1528659729541","72-5","8862","","","","false","401","847","508","777","[744.54,546.17],[631.7,634.3]","","true","null"
"","learner","15","201095","0.0-6.0-4.0","1528659729541","72-5","8232","","","","false","270","928","458","514","","[548.98,494.48],[363.9,698.8]","false","null"
"","check_point_button","16","210432","0.0-7.0","1528659729541","72-5","9336","","<p><font size='25'>¡FELICITACIONES! <br><br> TERMINASTE EL NIVEL 1</font></p>","0","","","","","","","","",""
"","learner","17","222472","0.0-8.0-0.0","1528659729541","72-5","12038","","","","false","247","828","122","524","[596.84,335.84]","[692.35,217.17]","false","null"
"","learner","18","231239","0.0-8.0-1.0","1528659729541","72-5","8766","","","","false","252","664","429","636","","[538.05,398.89],[351.19,498.32]","false","null"
"","learner","19","236503","0.0-8.0-2.0","1528659729541","72-5","5262","","","","false","313","893","318","517","[574.35,491.46]","[734.24,306.89]","true","null"
"","learner","20","241512","0.0-8.0-3.0","1528659729541","72-5","5007","","","","false","310","719","374","719","[454.95,492.19],[481.03,591.54]","","true","null"
"","learner","21","248232","0.0-8.0-4.0","1528659729541","72-5","6719","","","","false","347","876","468","781","[586.67,520.04],[739.28,663.45]","","true","null"
"","check_point_button","22","258811","0.0-9.0","1528659729541","72-5","10579","","<p><font size='25'>¡FELICITACIONES! <br><br> TERMINASTE EL NIVEL 2</font></p>","0","","","","","","","","",""
"","learner","23","271595","0.0-10.0-0.0","1528659729541","72-5","12783","","","","false","829","1144","-411","278","[350.29,418.81]","[488.33,740.77]","false","null"
"","learner","24","277763","0.0-10.0-1.0","1528659729541","72-5","6166","","","","false","205","627","545","817","[423.36,644.93],[377.46,509.02]","","false","null"
"","learner","25","284227","0.0-10.0-2.0","1528659729541","72-5","6463","","","","false","167","792","413","702","[396.96,572.94],[486.57,498.93]","","true","null"
"","learner","26","292867","0.0-10.0-3.0","1528659729541","72-5","8639","","","","false","611","872","957","1534","","[607.29,390.62],[529.78,514.13]","true","null"
"","learner","27","298252","0.0-10.0-4.0","1528659729541","72-5","5382","","","","false","142","904","396","699","","[742.56,498.99],[720.97,615.33]","false","null"
"","check_point_button","28","305515","0.0-11.0","1528659729541","72-5","7263","","<p><font size='25'>¡FELICITACIONES! <br><br> TERMINASTE EL NIVEL 3</font></p>","0","","","","","","","","",""
"","learner","29","317523","0.0-12.0-0.0","1528659729541","72-5","12006","","","","false","182","808","526","555","[395.71,528.29]","[484.27,689.11]","true","null"
"","learner","30","323230","0.0-12.0-1.0","1528659729541","72-5","5706","","","","false","377","794","308","653","[659.72,368.18]","[514.83,527.22]","false","null"
"","learner","31","328471","0.0-12.0-2.0","1528659729541","72-5","5238","","","","false","429","810","236","740","[721.2,564.06],[524.34,474.21]","","true","null"
"","learner","32","335998","0.0-12.0-3.0","1528659729541","72-5","7525","","","","false","174","709","621","861","[511.44,588.5],[318.63,739.36]","","false","null"
"","learner","33","344566","0.0-12.0-4.0","1528659729541","72-5","8566","","","","false","430","910","445","770","","[726.16,471.15],[497.21,709.44]","false","null"
"","check_point_button","34","352534","0.0-13.0","1528659729541","72-5","7967","","<p><font size='25'>¡FELICITACIONES! <br><br> TERMINASTE EL NIVEL 4</font></p>","0","","","","","","","","",""
"","learner","35","366598","0.0-14.0-0.0","1528659729541","72-5","14062","","","","false","226","674","371","386","","[331.42,457.29],[438.41,245.44]","true","null"
"","learner","36","374742","0.0-14.0-1.0","1528659729541","72-5","8142","","","","false","430","769","268","414","[581.85,272.9]","[678.17,349.62]","false","null"
"","learner","37","383033","0.0-14.0-2.0","1528659729541","72-5","8289","","","","false","420","829","536","763","[671.15,471.2]","[526.74,692.05]","false","null"
"","learner","38","396842","0.0-14.0-3.0","1528659729541","72-5","13806","","","","false","182","430","451","800","","[629.16,505.54],[380.23,730.03]","false","null"
"","learner","39","404618","0.0-14.0-4.0","1528659729541","72-5","7774","","","","false","89","750","483","942","[351.44,411.7]","[281.89,482.8]","false","null"
"","check_point_button","40","411714","0.0-15.0","1528659729541","72-5","7096","","<p><font size='25'>¡FELICITACIONES! <br><br> TERMINASTE EL NIVEL 5</font></p>","0","","","","","","","","",""
"","html-button-response","41","421346","0.0-16.0","1528659729541","72-5","9631","","<p align='center' style='font-size:25px;' > ¡ACORDATE DE QUE ALGUIEN TE DEJÓ ESTAS PISTAS PARA QUE ENCUENTRES LA CAJA! </p>","0","","","","","","","","",""
"","learner","42","430026","0.0-17.0-0.0","1528659729541","72-5","8679","","","","false","488","527","383","469","[555.06,288.63]","[613.61,622.49]","false","null"
"","learner","43","437459","0.0-17.0-1.0","1528659729541","72-5","7431","","","","false","409","451","869","906","[623.62,645.92]","[439.65,510.91]","false","null"
"","learner","44","442861","0.0-17.0-2.0","1528659729541","72-5","5401","","","","false","289","482","591","661","","[439.5,555.6],[233.32,696.53]","true","null"
"","learner","45","447965","0.0-17.0-3.0","1528659729541","72-5","5102","","","","false","253","592","647","741","[337.54,725.48],[446.95,666.39]","","true","null"
"","learner","46","483391","0.0-17.0-4.0","1528659729541","72-5","35423","","","","false","419","634","87","546","[428.39,583.11],[511.54,482.69]","","false","null"
"","check_point_button","47","499127","0.0-18.0","1528659729541","72-5","15736","","<p><font size='25'>¡FELICITACIONES! <br><br> TERMINASTE EL NIVEL 6</font></p>","0","","","","","","","","",""
"","learner","48","510146","0.0-19.0-0.0","1528659729541","72-5","11017","","","","false","259","538","456","938","[360.75,601.46]","[390.44,487.34]","false","null"
"","learner","49","534306","0.0-19.0-1.0","1528659729541","72-5","24159","","","","false","193","934","243","849","[519.17,709.53],[654.75,622.5]","","true","null"
"","learner","50","544267","0.0-19.0-2.0","1528659729541","72-5","9958","","","","false","795","1152","878","1223","[737.84,714.39]","[530.41,618.34]","false","null"
"","learner","51","550179","0.0-19.0-3.0","1528659729541","72-5","5911","","","","false","340","729","522","725","","[405.9,529.44],[575.97,657.62]","false","null"
"","learner","52","558619","0.0-19.0-4.0","1528659729541","72-5","8438","","","","false","405","553","503","646","[544.89,580.7]","[533.12,372.97]","true","null"
"","check_point_button","53","568926","0.0-20.0","1528659729541","72-5","10305","","<p><font size='25'>¡FELICITACIONES! <br><br> TERMINASTE EL NIVEL 7</font></p>","0","","","","","","","","",""
"","learner","54","580326","0.0-21.0-0.0","1528659729541","72-5","11398","","","","false","538","716","316","502","[666.66,456.45],[615.57,349.68]","","true","null"
"","learner","55","589164","0.0-21.0-1.0","1528659729541","72-5","8837","","","","false","521","590","702","824","[541.32,755.76]","[553.17,540.73]","true","null"
"","learner","56","597821","0.0-21.0-2.0","1528659729541","72-5","8654","","","","false","186","325","726","874","","[613.57,333.58],[371.53,516.34]","true","null"
"","learner","57","635448","0.0-21.0-3.0","1528659729541","72-5","37626","","","","false","209","565","544","908","[464.93,663.87],[348.32,583.38]","","true","null"
"","learner","58","646216","0.0-21.0-4.0","1528659729541","72-5","10765","","","","false","520","520","968","973","","[390.63,418.8],[469.26,607.73]","true","null"
"","check_point_button","59","661537","0.0-22.0","1528659729541","72-5","15320","","<p><font size='25'>¡FELICITACIONES! <br><br> TERMINASTE EL NIVEL 8</font></p>","0","","","","","","","","",""
"","learner","60","671041","0.0-23.0-0.0","1528659729541","72-5","9503","","","","false","478","656","377","443","[545.84,404.93]","[538.42,507.29]","true","null"
"","learner","61","675937","0.0-23.0-1.0","1528659729541","72-5","4895","","","","false","330","587","677","826","","[301.53,424.45],[432.02,461.17]","true","null"
"","learner","62","683065","0.0-23.0-2.0","1528659729541","72-5","7126","","","","false","686","833","271","443","[707.62,359.41]","[699.69,523.02]","true","null"
"","learner","63","689196","0.0-23.0-3.0","1528659729541","72-5","6128","","","","false","178","461","674","911","","[734.79,717.29],[641.98,504.7]","true","null"
"","learner","64","695356","0.0-23.0-4.0","1528659729541","72-5","6160","","","","false","541","543","963","967","[410.26,694.95]","[319.94,580.53]","false","null"
"","check_point_button","65","703252","0.0-24.0","1528659729541","72-5","7895","","<p><font size='25'>¡FELICITACIONES! <br><br> TERMINASTE EL NIVEL 9</font></p>","0","","","","","","","","",""
"","learner","66","708700","0.0-25.0-0.0","1528659729541","72-5","5445","","","","false","313","486","583","669","","[645.37,445.86],[529.07,355.54]","true","null"
"","learner","67","713972","0.0-25.0-1.0","1528659729541","72-5","5270","","","","false","186","299","600","717","[237.34,666.47]","[406.97,734.97]","true","null"
"","learner","68","721636","0.0-25.0-2.0","1528659729541","72-5","7663","","","","false","192","652","506","783","[356.04,615.7],[243.08,473.6]","","false","null"
"","learner","69","727893","0.0-25.0-3.0","1528659729541","72-5","6255","","","","false","513","515","970","970","[591.93,518.55]","[486.61,402.04]","false","null"
"","learner","70","733133","0.0-25.0-4.0","1528659729541","72-5","5238","","","","false","443","558","569","601","[486.76,580.06]","[685.58,359.02]","true","null"
"","check_point_button","71","775849","0.0-26.0","1528659729541","72-5","42715","","<p align='center' style='font-size:30px;' > COMPLETASTE TODOS LOS NIVELES  <br><br> ¡FELICITACIONES!<br><br> PRESIONA CUALQUIER TECLA PARA TERMINAR</p>","0","","","","","","","","",""
