success,trial_type,trial_index,time_elapsed,internal_node_id,start_time,Id,rt,responses,stimulus,button_pressed,Prueba,X_left,X_right,Y_top,Y_bottom,Circles,Crosses,Consistency,key_press
true,fullscreen,0,2359,0.0-0.0,1528662216997,88-12,,,,,,,,,,,,,
,survey-text,1,10818,0.0-1.0,1528662216997,88-12,8455,"{""Q0"":""88-12""}",,,,,,,,,,,
,my_image_button,2,21081,0.0-2.0-0.0,1528662216997,88-12,10261,,img/caja.png,0,,,,,,,,,
,my_image_button,3,31385,0.0-2.0-1.0,1528662216997,88-12,10303,,img/caja_con_ejemplos.png,0,,,,,,,,,
,my_image_button,4,39306,0.0-2.0-2.0,1528662216997,88-12,7919,,,0,,,,,,,,,
,learner,5,72749,0.0-3.0-0.0,1528662216997,88-12,33438,,,,true,612,923,505,733,"[465.22,469],[493.04,290.75]",,false,null
,learner,6,82108,0.0-3.0-1.0,1528662216997,88-12,9358,,,,true,566,762,471,602,"[664.41,536.42]","[525.52,669.61]",true,null
,learner,7,87061,0.0-3.0-2.0,1528662216997,88-12,4950,,,,true,337,569,438,571,,"[622.27,679.58],[310.89,371.4]",true,null
,learner,8,90581,0.0-3.0-3.0,1528662216997,88-12,3519,,,,true,613,799,452,543,"[694.79,485.44]","[551.46,592.03]",true,null
,check_point_button,9,111797,0.0-4.0,1528662216997,88-12,21214,,"<p><font size='25px'>ENTONCES, ¿QUÉ TENÉS QUE HACER? </font></p>",0,,,,,,,,,
,html-button-response,10,121749,0.0-5.0,1528662216997,88-12,9950,,<p align='center' style='font-size:25px;' > HAY 10 NIVELES <br> ¿ESTÁS LISTO/A PARA EMPEZAR? </p>,0,,,,,,,,,
,learner,11,133575,0.0-6.0-0.0,1528662216997,88-12,11824,,,,false,402,684,319,445,,"[717.46,460.55],[395.84,284.21]",true,null
,learner,12,145807,0.0-6.0-1.0,1528662216997,88-12,12230,,,,false,740,951,748,899,"[683.13,643.64],[599.68,710.4]",,false,null
,learner,13,154096,0.0-6.0-2.0,1528662216997,88-12,8286,,,,false,212,554,541,761,"[503.7,550.47],[290.87,744.89]",,true,null
,learner,14,159128,0.0-6.0-3.0,1528662216997,88-12,5031,,,,false,412,591,496,631,"[560.91,517.47],[477.59,608.32]",,true,null
,learner,15,163456,0.0-6.0-4.0,1528662216997,88-12,4326,,,,false,531,734,293,502,"[683.25,454.82],[569.87,308.24]",,true,null
,check_point_button,16,167120,0.0-7.0,1528662216997,88-12,3663,,<p><font size='25'>¡FELICITACIONES! <br><br> TERMINASTE EL NIVEL 1</font></p>,0,,,,,,,,,
,learner,17,171592,0.0-8.0-0.0,1528662216997,88-12,4471,,,,false,379,596,336,535,"[511.89,358.92],[470.29,478.78]",,true,null
,learner,18,176161,0.0-8.0-1.0,1528662216997,88-12,4566,,,,false,419,676,574,690,,"[505.5,520.95],[610.89,761.4]",true,null
,learner,19,179416,0.0-8.0-2.0,1528662216997,88-12,3252,,,,false,426,493,510,560,"[457.28,530.52]","[351.99,496.87]",true,null
,learner,20,183792,0.0-8.0-3.0,1528662216997,88-12,4374,,,,false,375,558,512,602,"[513.34,576.75],[403.72,541.22]",,true,null
,learner,21,187881,0.0-8.0-4.0,1528662216997,88-12,4087,,,,false,311,482,356,442,,"[279.5,340.47],[518.62,453.08]",true,null
,check_point_button,22,50569,0.0-9.0,1528662448649,88-12-b,5527,,<p><font size='25'>¡FELICITACIONES! <br><br> TERMINASTE EL NIVEL 2</font></p>,0,,,,,,,,,
,learner,23,58073,0.0-10.0-0.0,1528662448649,88-12-b,7503,,,,false,594,729,248,287,,"[588.11,258.6],[492.28,200.85]",true,null
,learner,24,63908,0.0-10.0-1.0,1528662448649,88-12-b,5832,,,,false,248,631,335,519,"[556.43,386.6],[351.82,481.1]",,true,null
,learner,25,67483,0.0-10.0-2.0,1528662448649,88-12-b,3574,,,,false,600,779,408,579,"[671.58,455.16],[708.64,556.84]",,true,null
,learner,26,71819,0.0-10.0-3.0,1528662448649,88-12-b,4335,,,,false,400,547,554,668,"[461.35,567.27],[505.76,654.45]",,true,null
,learner,27,76272,0.0-10.0-4.0,1528662448649,88-12-b,4446,,,,false,348,467,635,645,,"[601.14,699.77],[350.66,603.44]",true,null
,check_point_button,28,78748,0.0-11.0,1528662448649,88-12-b,2474,,<p><font size='25'>¡FELICITACIONES! <br><br> TERMINASTE EL NIVEL 3</font></p>,0,,,,,,,,,
,learner,29,83036,0.0-12.0-0.0,1528662448649,88-12-b,4286,,,,false,272,414,420,520,,"[468.75,665.45],[296.2,330.55]",true,null
,learner,30,86220,0.0-12.0-1.0,1528662448649,88-12-b,3182,,,,false,364,446,230,288,,"[474.23,207.63],[347.48,296.26]",true,null
,learner,31,89163,0.0-12.0-2.0,1528662448649,88-12-b,2942,,,,false,571,669,261,305,"[621.15,283.4]","[532.5,424.55]",true,null
,learner,32,91443,0.0-12.0-3.0,1528662448649,88-12-b,2278,,,,false,406,544,472,541,,"[548.08,462.45],[405.78,586.48]",true,null
,learner,33,94148,0.0-12.0-4.0,1528662448649,88-12-b,2704,,,,false,537,726,264,352,,"[608.67,457.11],[638.12,223.28]",true,null
,check_point_button,34,95556,0.0-13.0,1528662448649,88-12-b,1407,,<p><font size='25'>¡FELICITACIONES! <br><br> TERMINASTE EL NIVEL 4</font></p>,0,,,,,,,,,
,learner,35,106916,0.0-14.0-0.0,1528662448649,88-12-b,11359,,,,false,120,323,205,340,,"[653.54,752.36],[704.03,658.43]",true,null
,learner,36,113187,0.0-14.0-1.0,1528662448649,88-12-b,6270,,,,false,134,609,366,720,"[341.34,537.84],[298.41,397.69]",,true,null
,learner,37,115723,0.0-14.0-2.0,1528662448649,88-12-b,2534,,,,false,505,583,375,434,"[558.88,416.2]","[548.74,542.41]",true,null
,learner,38,133142,0.0-14.0-3.0,1528662448649,88-12-b,17417,,,,false,831,1656,932,1386,"[717.07,613.61]","[223.97,431.43]",false,null
,learner,39,140359,0.0-14.0-4.0,1528662448649,88-12-b,7215,,,,false,454,867,507,776,"[723.24,521.49],[485.13,663.47]",,true,null
,check_point_button,40,141663,0.0-15.0,1528662448649,88-12-b,1303,,<p><font size='25'>¡FELICITACIONES! <br><br> TERMINASTE EL NIVEL 5</font></p>,0,,,,,,,,,
,html-button-response,41,148711,0.0-16.0,1528662448649,88-12-b,7048,,<p align='center' style='font-size:25px;' > ¡ACORDATE DE QUE ALGUIEN TE DEJÓ ESTAS PISTAS PARA QUE ENCUENTRES LA CAJA! </p>,0,,,,,,,,,
,learner,42,152143,0.0-17.0-0.0,1528662448649,88-12-b,3430,,,,false,472,614,422,491,,"[652.08,428.83],[433.35,516.63]",true,null
,learner,43,155863,0.0-17.0-1.0,1528662448649,88-12-b,3718,,,,false,229,628,542,695,"[543.98,682.95],[282.36,560.75]",,true,null
,learner,44,158952,0.0-17.0-2.0,1528662448649,88-12-b,3087,,,,false,624,672,543,586,"[646.41,557.32]","[614.39,351.04]",true,null
,learner,45,161855,0.0-17.0-3.0,1528662448649,88-12-b,2901,,,,false,446,602,649,716,"[516.57,667.12]","[556.69,514.39]",true,null
,learner,46,164743,0.0-17.0-4.0,1528662448649,88-12-b,2886,,,,false,276,634,607,666,"[415.81,648.71]","[351.9,725.61]",true,null
,check_point_button,47,165984,0.0-18.0,1528662448649,88-12-b,1240,,<p><font size='25'>¡FELICITACIONES! <br><br> TERMINASTE EL NIVEL 6</font></p>,0,,,,,,,,,
,learner,48,168800,0.0-19.0-0.0,1528662448649,88-12-b,2815,,,,false,115,815,695,851,"[486.4,746.79]","[511.6,526.79]",true,null
,learner,49,170888,0.0-19.0-1.0,1528662448649,88-12-b,2087,,,,false,425,866,409,712,"[582.14,527.58]","[368.62,307.67]",true,null
,learner,50,178008,0.0-19.0-2.0,1528662448649,88-12-b,7119,,,,false,162,971,479,971,"[571.98,562.52]","[421.5,454.46]",true,null
,learner,51,180402,0.0-19.0-3.0,1528662448649,88-12-b,2393,,,,false,296,421,419,469,"[343.91,443.13]","[467.82,532.1]",true,null
,learner,52,183818,0.0-19.0-4.0,1528662448649,88-12-b,3415,,,,false,231,503,661,717,"[368.32,692.41]","[273.25,635.5]",true,null
,check_point_button,53,185354,0.0-20.0,1528662448649,88-12-b,1535,,<p><font size='25'>¡FELICITACIONES! <br><br> TERMINASTE EL NIVEL 7</font></p>,0,,,,,,,,,
,learner,54,189522,0.0-21.0-0.0,1528662448649,88-12-b,4166,,,,false,416,610,566,619,,"[506.09,640.42],[485.27,545.24]",true,null
,learner,55,194882,0.0-21.0-1.0,1528662448649,88-12-b,5358,,,,false,297,721,397,777,,"[736.59,541.79],[767.36,662.84]",true,null
,learner,56,207187,0.0-21.0-2.0,1528662448649,88-12-b,12302,,,,false,942,1243,712,821,"[676.84,617.71]","[676.53,763.74]",false,null
,learner,57,210242,0.0-21.0-3.0,1528662448649,88-12-b,3055,,,,false,540,943,222,788,"[643.25,299.76]","[453.91,363.82]",true,null
,learner,58,213003,0.0-21.0-4.0,1528662448649,88-12-b,2758,,,,false,416,653,630,670,,"[500.06,565.73],[522.3,749.45]",true,null
,check_point_button,59,214410,0.0-22.0,1528662448649,88-12-b,1407,,<p><font size='25'>¡FELICITACIONES! <br><br> TERMINASTE EL NIVEL 8</font></p>,0,,,,,,,,,
,learner,60,217531,0.0-23.0-0.0,1528662448649,88-12-b,3118,,,,false,60,877,365,572,,"[257.64,689.94],[374.3,315.8]",true,null
,learner,61,220259,0.0-23.0-1.0,1528662448649,88-12-b,2727,,,,false,363,851,326,725,"[660,499.52],[431.48,354.62]",,true,null
,learner,62,223050,0.0-23.0-2.0,1528662448649,88-12-b,2790,,,,false,352,429,404,434,"[401.71,407.63]","[420.51,243.72]",true,null
,learner,63,229779,0.0-23.0-3.0,1528662448649,88-12-b,6726,,,,false,376,887,736,969,,"[775.44,495.14],[596.08,680.35]",true,null
,learner,64,233275,0.0-23.0-4.0,1528662448649,88-12-b,3494,,,,false,361,498,524,590,"[375.65,533.24],[465.13,580.91]",,true,null
,check_point_button,65,235339,0.0-24.0,1528662448649,88-12-b,2062,,<p><font size='25'>¡FELICITACIONES! <br><br> TERMINASTE EL NIVEL 9</font></p>,0,,,,,,,,,
,learner,66,240070,0.0-25.0-0.0,1528662448649,88-12-b,4728,,,,false,288,656,354,548,,"[646.33,200.95],[775.03,309.66]",true,null
,learner,67,244093,0.0-25.0-1.0,1528662448649,88-12-b,4023,,,,false,469,701,360,556,"[643.59,551.49],[506.57,375.19]",,true,null
,learner,68,247429,0.0-25.0-2.0,1528662448649,88-12-b,3335,,,,false,374,878,560,796,"[563.59,697.97],[702.28,577.91]",,true,null
,learner,69,251781,0.0-25.0-3.0,1528662448649,88-12-b,4350,,,,false,563,724,334,419,"[684.81,351.33],[603.31,412.24]",,true,null
,learner,70,255046,0.0-25.0-4.0,1528662448649,88-12-b,3262,,,,false,196,611,302,606,"[501.88,396.08],[398.05,572.04]",,true,null
,check_point_button,71,294454,0.0-26.0,1528662448649,88-12-b,39408,,<p align='center' style='font-size:30px;' > COMPLETASTE TODOS LOS NIVELES  <br><br> ¡FELICITACIONES!<br><br> PRESIONA CUALQUIER TECLA PARA TERMINAR</p>,0,,,,,,,,,
