"success","trial_type","trial_index","time_elapsed","internal_node_id","start_time","Id","rt","responses","stimulus","button_pressed","Prueba","X_left","X_right","Y_top","Y_bottom","Circles","Crosses","Consistency","key_press"
"true","fullscreen","0","9889","0.0-0.0","1528662594244","92-12","","","","","","","","","","","","",""
"","survey-text","1","14638","0.0-1.0","1528662594244","92-12","4745","{""Q0"":""92-12""}","","","","","","","","","","",""
"","my_image_button","2","24182","0.0-2.0-0.0","1528662594244","92-12","9542","","img/caja.png","0","","","","","","","","",""
"","my_image_button","3","35845","0.0-2.0-1.0","1528662594244","92-12","11663","","img/caja_con_ejemplos.png","0","","","","","","","","",""
"","my_image_button","4","45830","0.0-2.0-2.0","1528662594244","92-12","9983","","","0","","","","","","","","",""
"","learner","5","78120","0.0-3.0-0.0","1528662594244","92-12","32285","","","","true","309","551","478","615","[387.33,579.02],[461.95,503.01]","","true","null"
"","learner","6","94320","0.0-3.0-1.0","1528662594244","92-12","16198","","","","true","322","545","554","686","[464.78,602.15]","[258.38,659.47]","true","null"
"","learner","7","109571","0.0-3.0-2.0","1528662594244","92-12","15247","","","","true","292","525","570","710","","[637.31,742.22],[377.85,426.84]","true","null"
"","learner","8","129028","0.0-3.0-3.0","1528662594244","92-12","19455","","","","true","44","267","537","683","[214.7,641.86]","[245.67,492.56]","true","null"
"","check_point_button","9","176445","0.0-4.0","1528662594244","92-12","47416","","<p><font size='25px'>ENTONCES, ¿QUÉ TENÉS QUE HACER? </font></p>","0","","","","","","","","",""
"","html-button-response","10","187695","0.0-5.0","1528662594244","92-12","11249","","<p align='center' style='font-size:25px;' > HAY 10 NIVELES <br> ¿ESTÁS LISTO/A PARA EMPEZAR? </p>","0","","","","","","","","",""
"","learner","11","196791","0.0-6.0-0.0","1528662594244","92-12","9093","","","","false","424","654","261","389","[467.65,378.25],[549.58,286.75]","","true","null"
"","learner","12","213824","0.0-6.0-1.0","1528662594244","92-12","17031","","","","false","357","600","420","568","[472.37,429.95],[418.08,560.2]","","true","null"
"","learner","13","243399","0.0-6.0-2.0","1528662594244","92-12","29573","","","","false","333","567","390","522","","[501.47,533.56],[580.82,623.51]","true","null"
"","learner","14","251297","0.0-6.0-3.0","1528662594244","92-12","7897","","","","false","416","642","486","633","[526.38,499.5],[586.37,625.19]","","true","null"
"","learner","15","269330","0.0-6.0-4.0","1528662594244","92-12","18031","","","","false","245","474","299","434","[336.21,315.18]","[349.94,569.54]","true","null"
"","check_point_button","16","273146","0.0-7.0","1528662594244","92-12","3815","","<p><font size='25'>¡FELICITACIONES! <br><br> TERMINASTE EL NIVEL 1</font></p>","0","","","","","","","","",""
"","learner","17","281658","0.0-8.0-0.0","1528662594244","92-12","8510","","","","false","444","686","523","671","","[578.72,770.17],[652.79,404.43]","true","null"
"","learner","18","291226","0.0-8.0-1.0","1528662594244","92-12","9567","","","","false","520","779","458","602","[673.27,468.61],[645.07,594.31]","","true","null"
"","learner","19","300946","0.0-8.0-2.0","1528662594244","92-12","9718","","","","false","468","709","396","533","","[602.22,315.86],[434.9,408.17]","true","null"
"","learner","20","320509","0.0-8.0-3.0","1528662594244","92-12","19560","","","","false","407","649","343","490","","[664.33,542.48],[547.29,505.61]","true","null"
"","learner","21","328357","0.0-8.0-4.0","1528662594244","92-12","7847","","","","false","340","592","478","635","[452.66,558.4]","[303.18,451.2]","true","null"
"","check_point_button","22","331429","0.0-9.0","1528662594244","92-12","3071","","<p><font size='25'>¡FELICITACIONES! <br><br> TERMINASTE EL NIVEL 2</font></p>","0","","","","","","","","",""
"","learner","23","339181","0.0-10.0-0.0","1528662594244","92-12","7750","","","","false","466","731","626","772","[627,679.27]","[512.08,547.83]","true","null"
"","learner","24","359126","0.0-10.0-1.0","1528662594244","92-12","19943","","","","false","355","606","283","417","[446.64,295.5]","[520.59,519.64]","true","null"
"","learner","25","366278","0.0-10.0-2.0","1528662594244","92-12","7151","","","","false","468","711","329","467","[668.5,354.04],[536.42,444.96]","","true","null"
"","learner","26","373441","0.0-10.0-3.0","1528662594244","92-12","7161","","","","false","499","725","350","489","[564.73,400.28]","[706.51,327.69]","true","null"
"","learner","27","379857","0.0-10.0-4.0","1528662594244","92-12","6415","","","","false","127","368","510","647","[233.67,518.46],[226.56,630.39]","","true","null"
"","check_point_button","28","381537","0.0-11.0","1528662594244","92-12","1678","","<p><font size='25'>¡FELICITACIONES! <br><br> TERMINASTE EL NIVEL 3</font></p>","0","","","","","","","","",""
"","learner","29","390425","0.0-12.0-0.0","1528662594244","92-12","8886","","","","false","355","601","482","620","","[470.68,722.92],[415.18,372.23]","true","null"
"","learner","30","406762","0.0-12.0-1.0","1528662594244","92-12","16334","","","","false","293","556","344","493","[431.59,358.81]","[476.29,775.79]","true","null"
"","learner","31","430610","0.0-12.0-2.0","1528662594244","92-12","23847","","","","false","352","612","475","630","","[579.63,445.69],[332.45,672.32]","true","null"
"","learner","32","436892","0.0-12.0-3.0","1528662594244","92-12","6281","","","","false","449","713","592","739","","[482.75,527.36],[598.61,767.83]","true","null"
"","learner","33","443436","0.0-12.0-4.0","1528662594244","92-12","6543","","","","false","327","599","231","390","[488.66,283.27]","[270.91,595.73]","true","null"
"","check_point_button","34","444900","0.0-13.0","1528662594244","92-12","1464","","<p><font size='25'>¡FELICITACIONES! <br><br> TERMINASTE EL NIVEL 4</font></p>","0","","","","","","","","",""
"","learner","35","462164","0.0-14.0-0.0","1528662594244","92-12","17261","","","","false","376","637","608","762","[626.09,618.64],[392.4,748.42]","","true","null"
"","learner","36","482643","0.0-14.0-1.0","1528662594244","92-12","20479","","","","false","541","843","321","507","[575.68,330.46],[702.94,501.16]","","true","null"
"","learner","37","498046","0.0-14.0-2.0","1528662594244","92-12","15401","","","","false","401","671","463","624","","[396.3,588.98],[429.6,690.97]","true","null"
"","learner","38","506822","0.0-14.0-3.0","1528662594244","92-12","8775","","","","false","481","761","238","417","[491.15,245.79],[686.28,405.72]","","true","null"
"","learner","39","515901","0.0-14.0-4.0","1528662594244","92-12","9077","","","","false","389","666","547","704","","[681.27,708.46],[591.34,504.48]","true","null"
"","check_point_button","40","517831","0.0-15.0","1528662594244","92-12","1928","","<p><font size='25'>¡FELICITACIONES! <br><br> TERMINASTE EL NIVEL 5</font></p>","0","","","","","","","","",""
"","html-button-response","41","524262","0.0-16.0","1528662594244","92-12","6431","","<p align='center' style='font-size:25px;' > ¡ACORDATE DE QUE ALGUIEN TE DEJÓ ESTAS PISTAS PARA QUE ENCUENTRES LA CAJA! </p>","0","","","","","","","","",""
"","learner","42","536766","0.0-17.0-0.0","1528662594244","92-12","12502","","","","false","427","728","297","446","[533.28,303.74]","[664.4,623.46]","true","null"
"","learner","43","545318","0.0-17.0-1.0","1528662594244","92-12","8550","","","","false","477","740","423","563","","[740.74,323.38],[464.53,721.25]","true","null"
"","learner","44","560489","0.0-17.0-2.0","1528662594244","92-12","15169","","","","false","391","698","498","658","","[444.83,735.61],[248.61,560.43]","true","null"
"","learner","45","569209","0.0-17.0-3.0","1528662594244","92-12","8718","","","","false","456","734","518","674","[584.79,643.26],[683.41,535.47]","","true","null"
"","learner","46","577250","0.0-17.0-4.0","1528662594244","92-12","8038","","","","false","286","557","492","653","[343.72,535.89]","[222.3,656.58]","true","null"
"","check_point_button","47","578794","0.0-18.0","1528662594244","92-12","1542","","<p><font size='25'>¡FELICITACIONES! <br><br> TERMINASTE EL NIVEL 6</font></p>","0","","","","","","","","",""
"","learner","48","587402","0.0-19.0-0.0","1528662594244","92-12","8607","","","","false","320","610","431","587","[498.17,455.17],[441.55,557.57]","","true","null"
"","learner","49","599394","0.0-19.0-1.0","1528662594244","92-12","11991","","","","false","341","594","461","604","[372.13,489.27]","[242.65,432.97]","true","null"
"","learner","50","608714","0.0-19.0-2.0","1528662594244","92-12","9319","","","","false","523","786","513","671","[735.39,665.4],[561.41,520.03]","","true","null"
"","learner","51","641294","0.0-19.0-3.0","1528662594244","92-12","32579","","","","false","272","455","361","632","[292.01,597.79],[446.98,377.46]","","true","null"
"","learner","52","652966","0.0-19.0-4.0","1528662594244","92-12","11670","","","","false","164","446","442","613","","[234.43,396.14],[470.51,496.13]","true","null"
"","check_point_button","53","655303","0.0-20.0","1528662594244","92-12","2336","","<p><font size='25'>¡FELICITACIONES! <br><br> TERMINASTE EL NIVEL 7</font></p>","0","","","","","","","","",""
"","learner","54","669895","0.0-21.0-0.0","1528662594244","92-12","14591","","","","false","378","676","348","512","[454.49,361.94]","[696.8,452.8]","true","null"
"","learner","55","679007","0.0-21.0-1.0","1528662594244","92-12","9110","","","","false","401","665","379","535","","[480.72,329.62],[731.89,494.33]","true","null"
"","learner","56","691417","0.0-21.0-2.0","1528662594244","92-12","12409","","","","false","566","751","275","544","[715.15,296.83]","[398.96,543.27]","true","null"
"","learner","57","700617","0.0-21.0-3.0","1528662594244","92-12","9198","","","","false","485","659","288","599","[592.45,302.3],[553,589.04]","","true","null"
"","learner","58","708586","0.0-21.0-4.0","1528662594244","92-12","7968","","","","false","204","457","544","696","[245.91,651.61]","[211.12,762.72]","true","null"
"","check_point_button","59","710178","0.0-22.0","1528662594244","92-12","1590","","<p><font size='25'>¡FELICITACIONES! <br><br> TERMINASTE EL NIVEL 8</font></p>","0","","","","","","","","",""
"","learner","60","720714","0.0-23.0-0.0","1528662594244","92-12","10534","","","","false","445","620","401","678","[514.55,420.16]","[649.9,702.12]","true","null"
"","learner","61","740266","0.0-23.0-1.0","1528662594244","92-12","19550","","","","false","484","672","231","524","[577.01,252.14],[523.11,417.57]","","true","null"
"","learner","62","755916","0.0-23.0-2.0","1528662594244","92-12","15650","","","","false","321","634","541","698","[410.68,617.69]","[447.41,401.07]","true","null"
"","learner","63","763773","0.0-23.0-3.0","1528662594244","92-12","7855","","","","false","546","725","507","766","[574.97,546.97],[699.18,612.94]","","true","null"
"","learner","64","772916","0.0-23.0-4.0","1528662594244","92-12","9142","","","","false","503","657","314","580","","[736.7,487.36],[480.3,389.6]","true","null"
"","check_point_button","65","774236","0.0-24.0","1528662594244","92-12","1320","","<p><font size='25'>¡FELICITACIONES! <br><br> TERMINASTE EL NIVEL 9</font></p>","0","","","","","","","","",""
"","learner","66","784117","0.0-25.0-0.0","1528662594244","92-12","9879","","","","false","355","649","641","788","[463.79,729.52]","[350.65,506.25]","true","null"
"","learner","67","794133","0.0-25.0-1.0","1528662594244","92-12","10014","","","","false","403","590","392","660","[460.21,473.5]","[438.06,353.06]","true","null"
"","learner","68","812152","0.0-25.0-2.0","1528662594244","92-12","18017","","","","false","402","578","381","681","","[484.79,350.63],[613.78,402.95]","true","null"
"","learner","69","821287","0.0-25.0-3.0","1528662594244","92-12","9135","","","","false","379","667","479","633","","[683.65,468.17],[430.26,644.12]","true","null"
"","learner","70","829392","0.0-25.0-4.0","1528662594244","92-12","8103","","","","false","416","710","369","539","[557.65,407.07]","[424.43,630.9]","true","null"
"","check_point_button","71","849255","0.0-26.0","1528662594244","92-12","19863","","<p align='center' style='font-size:30px;' > COMPLETASTE TODOS LOS NIVELES  <br><br> ¡FELICITACIONES!<br><br> PRESIONA CUALQUIER TECLA PARA TERMINAR</p>","0","","","","","","","","",""
