"success","trial_type","trial_index","time_elapsed","internal_node_id","start_time","Id","rt","responses","stimulus","button_pressed","Prueba","X_left","X_right","Y_top","Y_bottom","Circles","Crosses","Consistency","key_press"
"true","fullscreen","0","2645","0.0-0.0","1528663602312","95-6","","","","","","","","","","","","",""
"","survey-text","1","12396","0.0-1.0","1528663602312","95-6","9748","{""Q0"":""95-6""}","","","","","","","","","","",""
"","my_image_button","2","25148","0.0-2.0-0.0","1528663602312","95-6","12749","","img/caja.png","0","","","","","","","","",""
"","my_image_button","3","51331","0.0-2.0-1.0","1528663602312","95-6","26183","","img/caja_con_ejemplos.png","0","","","","","","","","",""
"","my_image_button","4","62470","0.0-2.0-2.0","1528663602312","95-6","11138","","","0","","","","","","","","",""
"","learner","5","93223","0.0-3.0-0.0","1528663602312","95-6","30747","","","","true","668","967","519","701","[372.8,243.02],[313.88,404.05]","","false","null"
"","learner","6","140299","0.0-3.0-1.0","1528663602312","95-6","47073","","","","true","245","338","458","613","[301.36,531.2]","[335.25,631.9]","true","null"
"","learner","7","154603","0.0-3.0-2.0","1528663602312","95-6","14302","","","","true","231","429","610","700","","[235.76,614.01],[430.02,696.2]","false","null"
"","learner","8","168867","0.0-3.0-3.0","1528663602312","95-6","14263","","","","true","650","713","300","518","[686.1,485.11]","[645.6,291.37]","true","null"
"","check_point_button","9","183860","0.0-4.0","1528663602312","95-6","14991","","<p><font size='25px'>ENTONCES, ¿QUÉ TENÉS QUE HACER? </font></p>","0","","","","","","","","",""
"","html-button-response","10","195159","0.0-5.0","1528663602312","95-6","11299","","<p align='center' style='font-size:25px;' > HAY 10 NIVELES <br> ¿ESTÁS LISTO/A PARA EMPEZAR? </p>","0","","","","","","","","",""
"","learner","11","206559","0.0-6.0-0.0","1528663602312","95-6","11399","","","","false","400","553","532","708","[509.63,662.14]","[394.68,530.68]","true","null"
"","learner","12","225919","0.0-6.0-1.0","1528663602312","95-6","19358","","","","false","442","554","338","684","","[552.08,342.45],[440.07,682.15]","false","null"
"","learner","13","331005","0.0-6.0-2.0","1528663602312","95-6","105086","","","","false","-185","186","-400","285","[298.12,438.23],[361.16,512.75]","","false","null"
"","learner","14","342886","0.0-6.0-3.0","1528663602312","95-6","11878","","","","false","440","567","454","682","","[558,709.31],[441.9,558.33]","false","null"
"","learner","15","349846","0.0-6.0-4.0","1528663602312","95-6","6959","","","","false","738","778","582","689","","[753.69,586.99],[727.72,693.16]","false","null"
"","check_point_button","16","355590","0.0-7.0","1528663602312","95-6","5743","","<p><font size='25'>¡FELICITACIONES! <br><br> TERMINASTE EL NIVEL 1</font></p>","0","","","","","","","","",""
"","learner","17","369495","0.0-8.0-0.0","1528663602312","95-6","13903","","","","false","296","397","173","231","","[399.42,229.1],[300,201.75]","false","null"
"","learner","18","378102","0.0-8.0-1.0","1528663602312","95-6","8606","","","","false","228","525","297","542","[316.02,316.18],[471.67,515.25]","","true","null"
"","learner","19","422459","0.0-8.0-2.0","1528663602312","95-6","44353","","","","false","377","574","366","584","[408.32,417.4]","[569.58,584.67]","true","null"
"","learner","20","429771","0.0-8.0-3.0","1528663602312","95-6","7311","","","","false","199","426","230","437","","[195.89,425.25],[426.59,285.16]","true","null"
"","learner","21","440923","0.0-8.0-4.0","1528663602312","95-6","11150","","","","false","555","692","817","941","","[565.69,454.14],[412.31,541.26]","true","null"
"","check_point_button","22","446509","0.0-9.0","1528663602312","95-6","5585","","<p><font size='25'>¡FELICITACIONES! <br><br> TERMINASTE EL NIVEL 2</font></p>","0","","","","","","","","",""
"","learner","23","462956","0.0-10.0-0.0","1528663602312","95-6","16445","","","","false","667","829","204","338","[713.8,211.08],[731.92,326.16]","","true","null"
"","learner","24","472460","0.0-10.0-1.0","1528663602312","95-6","9502","","","","false","421","567","184","524","","[568.98,518.64],[424.29,195.09]","false","null"
"","learner","25","486957","0.0-10.0-2.0","1528663602312","95-6","14496","","","","false","353","689","319","562","[636.72,509.72],[396.69,393.26]","","true","null"
"","learner","26","494757","0.0-10.0-3.0","1528663602312","95-6","7799","","","","false","590","716","266","457","[688.71,396.39],[602.79,334.66]","","true","null"
"","learner","27","507359","0.0-10.0-4.0","1528663602312","95-6","12600","","","","false","488","661","556","726","[606.2,607.54],[516.31,653.92]","","true","null"
"","check_point_button","28","513304","0.0-11.0","1528663602312","95-6","5943","","<p><font size='25'>¡FELICITACIONES! <br><br> TERMINASTE EL NIVEL 3</font></p>","0","","","","","","","","",""
"","learner","29","520560","0.0-12.0-0.0","1528663602312","95-6","7255","","","","false","313","409","299","585","[390.6,552.35]","[308.62,293.31]","true","null"
"","learner","30","526953","0.0-12.0-1.0","1528663602312","95-6","6389","","","","false","585","705","352","469","[593.27,455.63],[671.4,378.77]","","true","null"
"","learner","31","533464","0.0-12.0-2.0","1528663602312","95-6","6510","","","","false","280","596","599","713","","[298.58,717.56],[595.01,599.23]","false","null"
"","learner","32","539897","0.0-12.0-3.0","1528663602312","95-6","6431","","","","false","470","540","844","969","","[614.65,680.6],[559.18,546.46]","true","null"
"","learner","33","548321","0.0-12.0-4.0","1528663602312","95-6","8424","","","","false","471","562","332","564","[539.16,504.81]","[474.76,337.34]","false","null"
"","check_point_button","34","557241","0.0-13.0","1528663602312","95-6","8919","","<p><font size='25'>¡FELICITACIONES! <br><br> TERMINASTE EL NIVEL 4</font></p>","0","","","","","","","","",""
"","learner","35","565529","0.0-14.0-0.0","1528663602312","95-6","8286","","","","false","405","605","410","652","[566.1,593.1]","[402.29,399.11]","true","null"
"","learner","36","579932","0.0-14.0-1.0","1528663602312","95-6","14402","","","","false","429","754","303","658","","[427.89,294.18],[752.77,652.52]","false","null"
"","learner","37","619460","0.0-14.0-2.0","1528663602312","95-6","39527","","","","false","581","658","414","667","","[585.99,424.17],[621.7,663.07]","false","null"
"","learner","38","625629","0.0-14.0-3.0","1528663602312","95-6","6166","","","","false","560","654","472","609","[601.8,511.23]","[650.43,604.7]","false","null"
"","learner","39","639911","0.0-14.0-4.0","1528663602312","95-6","14281","","","","false","532","789","49","485","[559.09,445.62],[752.51,282.32]","","true","null"
"","check_point_button","40","647696","0.0-15.0","1528663602312","95-6","7783","","<p><font size='25'>¡FELICITACIONES! <br><br> TERMINASTE EL NIVEL 5</font></p>","0","","","","","","","","",""
"","html-button-response","41","660656","0.0-16.0","1528663602312","95-6","12959","","<p align='center' style='font-size:25px;' > ¡ACORDATE DE QUE ALGUIEN TE DEJÓ ESTAS PISTAS PARA QUE ENCUENTRES LA CAJA! </p>","0","","","","","","","","",""
"","learner","42","675096","0.0-17.0-0.0","1528663602312","95-6","14439","","","","false","515","749","469","582","","[513.75,475.86],[747.21,578.75]","false","null"
"","learner","43","686039","0.0-17.0-1.0","1528663602312","95-6","10941","","","","false","517","527","973","978","","[557.87,764.13],[723.89,655.36]","false","null"
"","learner","44","693587","0.0-17.0-2.0","1528663602312","95-6","7546","","","","false","361","525","455","521","[509.15,502.23]","[358.14,453.25]","true","null"
"","learner","45","706475","0.0-17.0-3.0","1528663602312","95-6","12886","","","","false","504","761","392","656","[525.34,428.46]","[762.06,656.67]","true","null"
"","learner","46","715899","0.0-17.0-4.0","1528663602312","95-6","9421","","","","false","146","532","755","973","","[310.51,421.45],[632.62,633.7]","true","null"
"","check_point_button","47","721075","0.0-18.0","1528663602312","95-6","5176","","<p><font size='25'>¡FELICITACIONES! <br><br> TERMINASTE EL NIVEL 6</font></p>","0","","","","","","","","",""
"","learner","48","732484","0.0-19.0-0.0","1528663602312","95-6","11407","","","","false","296","400","333","484","[323.61,450.58],[357.27,358.78]","","true","null"
"","learner","49","747540","0.0-19.0-1.0","1528663602312","95-6","15054","","","","false","362","443","268","572","[398.58,368.23],[440.51,547.33]","","true","null"
"","learner","50","752470","0.0-19.0-2.0","1528663602312","95-6","4929","","","","false","555","733","421","629","[573.44,472.93]","[733.07,632.9]","true","null"
"","learner","51","760718","0.0-19.0-3.0","1528663602312","95-6","8246","","","","false","189","640","205","570","","[648.95,571.93],[194.48,246.28]","false","null"
"","learner","52","776495","0.0-19.0-4.0","1528663602312","95-6","15775","","","","false","255","314","379","502","","[251.38,504.7],[268.82,390.71]","false","null"
"","check_point_button","53","782855","0.0-20.0","1528663602312","95-6","6359","","<p><font size='25'>¡FELICITACIONES! <br><br> TERMINASTE EL NIVEL 7</font></p>","0","","","","","","","","",""
"","learner","54","794799","0.0-21.0-0.0","1528663602312","95-6","11943","","","","false","499","699","531","734","","[499.44,530.79],[694.38,727.3]","false","null"
"","learner","55","813562","0.0-21.0-1.0","1528663602312","95-6","18761","","","","false","367","655","274","661","[448.67,396.79],[577.74,644.17]","","true","null"
"","learner","56","819746","0.0-21.0-2.0","1528663602312","95-6","6183","","","","false","623","669","562","739","[650.95,715.89],[641.78,618.15]","","true","null"
"","learner","57","832410","0.0-21.0-3.0","1528663602312","95-6","12663","","","","false","518","596","276","529","[565.3,505.49],[569.35,303.09]","","true","null"
"","learner","58","837642","0.0-21.0-4.0","1528663602312","95-6","5230","","","","false","615","728","345","671","[702.95,630.81]","[615.2,341]","true","null"
"","check_point_button","59","844331","0.0-22.0","1528663602312","95-6","6687","","<p><font size='25'>¡FELICITACIONES! <br><br> TERMINASTE EL NIVEL 8</font></p>","0","","","","","","","","",""
"","learner","60","858283","0.0-23.0-0.0","1528663602312","95-6","13951","","","","false","561","715","571","791","[649.55,723.72],[581.3,634.5]","","true","null"
"","learner","61","868300","0.0-23.0-1.0","1528663602312","95-6","10015","","","","false","414","589","280","645","[551.69,370.69],[449.74,468.31]","","true","null"
"","learner","62","877949","0.0-23.0-2.0","1528663602312","95-6","9648","","","","false","285","460","589","828","[316.56,703.79],[451.36,662.12]","","true","null"
"","learner","63","896478","0.0-23.0-3.0","1528663602312","95-6","18527","","","","false","492","685","400","794","[550.39,579.61],[621.9,711.75]","","true","null"
"","learner","64","902838","0.0-23.0-4.0","1528663602312","95-6","6358","","","","false","557","708","411","494","[648.9,451.04]","[561.34,406.63]","true","null"
"","check_point_button","65","907414","0.0-24.0","1528663602312","95-6","4575","","<p><font size='25'>¡FELICITACIONES! <br><br> TERMINASTE EL NIVEL 9</font></p>","0","","","","","","","","",""
"","learner","66","916910","0.0-25.0-0.0","1528663602312","95-6","9493","","","","false","377","633","241","830","[434.77,272.34],[479.74,596.14]","","true","null"
"","learner","67","922886","0.0-25.0-1.0","1528663602312","95-6","5974","","","","false","309","563","372","606","[517.41,538.07],[338.79,440.47]","","true","null"
"","learner","68","930462","0.0-25.0-2.0","1528663602312","95-6","7574","","","","false","459","560","366","446","","[557.19,398.31],[458.16,360.99]","false","null"
"","learner","69","938386","0.0-25.0-3.0","1528663602312","95-6","7920","","","","false","267","411","560","733","[281.4,700.63],[373.14,597.51]","","true","null"
"","learner","70","949554","0.0-25.0-4.0","1528663602312","95-6","11166","","","","false","533","760","328","434","[720.58,386.47]","[532.67,335.13]","true","null"
"","check_point_button","71","987738","0.0-26.0","1528663602312","95-6","38183","","<p align='center' style='font-size:30px;' > COMPLETASTE TODOS LOS NIVELES  <br><br> ¡FELICITACIONES!<br><br> PRESIONA CUALQUIER TECLA PARA TERMINAR</p>","0","","","","","","","","",""
