"success","trial_type","trial_index","time_elapsed","internal_node_id","start_time","Id","rt","responses","stimulus","button_pressed","Prueba","X_left","X_right","Y_top","Y_bottom","Circles","Crosses","Consistency","key_press"
"true","fullscreen","0","4841","0.0-0.0","1532721125444","10-420","","","","","","","","","","","","",""
"","survey-text","1","9697","0.0-1.0","1532721125444","10-420","4852","{""Q0"":""10-420""}","","","","","","","","","","",""
"","my_image_button","2","27384","0.0-2.0-0.0","1532721125444","10-420","17686","","img/caja.png","0","","","","","","","","",""
"","my_image_button","3","47576","0.0-2.0-1.0","1532721125444","10-420","20191","","img/caja_con_ejemplos.png","0","","","","","","","","",""
"","my_image_button","4","54824","0.0-2.0-2.0","1532721125444","10-420","7247","","","0","","","","","","","","",""
"","learner","5","73179","0.0-3.0-0.0","1532721125444","10-420","18349","","","","true","653","654","605","605","[545.04,735.35],[650.91,603.95]","","false","null"
"","learner","6","85547","0.0-3.0-1.0","1532721125444","10-420","12366","","","","true","506","526","384","386","[397.39,384.03]","[390.16,214.82]","false","null"
"","learner","7","100163","0.0-3.0-2.0","1532721125444","10-420","14614","","","","true","291","380","572","690","","[364.4,688.46],[381.38,567.36]","false","null"
"","learner","8","123975","0.0-3.0-3.0","1532721125444","10-420","23809","","","","true","688","713","419","490","[715.22,626.49]","[606.69,420.03]","false","null"
"","check_point_button","9","169728","0.0-4.0","1532721125444","10-420","45752","","<p><font size='25px'>ENTONCES, ¿QUÉ TENÉS QUE HACER? </font></p>","0","","","","","","","","",""
"","html-button-response","10","180304","0.0-5.0","1532721125444","10-420","10575","","<p align='center' style='font-size:25px;' > HAY 10 NIVELES <br> ¿ESTÁS LISTO/A PARA EMPEZAR? </p>","0","","","","","","","","",""
"","learner","11","203883","0.0-6.0-0.0","1532721125444","10-420","23576","","","","false","469","769","452","561","","[483.46,546.99],[736.78,462.77]","false","null"
"","learner","12","217395","0.0-6.0-1.0","1532721125444","10-420","13510","","","","false","506","573","339","623","","[497.93,353.38],[581.47,611.49]","true","null"
"","learner","13","225715","0.0-6.0-2.0","1532721125444","10-420","8317","","","","false","471","517","624","716","","[472.62,725.04],[528.1,629.86]","true","null"
"","learner","14","234115","0.0-6.0-3.0","1532721125444","10-420","8399","","","","false","531","730","564","708","[717.43,575.11]","[527.62,723.93]","true","null"
"","learner","15","251701","0.0-6.0-4.0","1532721125444","10-420","17583","","","","false","583","734","514","577","[606.23,574.81]","[741.53,512.28]","true","null"
"","check_point_button","16","256317","0.0-7.0","1532721125444","10-420","4616","","<p><font size='25'>¡FELICITACIONES! <br><br> TERMINASTE EL NIVEL 1</font></p>","0","","","","","","","","",""
"","learner","17","269270","0.0-8.0-0.0","1532721125444","10-420","12951","","","","false","380","561","580","709","[550.29,698.59],[401.08,589.45]","","true","null"
"","learner","18","284133","0.0-8.0-1.0","1532721125444","10-420","14862","","","","false","237","269","263","442","[258.08,434.26]","[221.32,252.59]","true","null"
"","learner","19","293222","0.0-8.0-2.0","1532721125444","10-420","9086","","","","false","499","724","556","681","","[732.49,558.34],[486.55,679.83]","true","null"
"","learner","20","299414","0.0-8.0-3.0","1532721125444","10-420","6190","","","","false","495","587","411","607","","[488.1,602.89],[592.57,407.88]","true","null"
"","learner","21","313192","0.0-8.0-4.0","1532721125444","10-420","13777","","","","false","521","664","361","460","[650.68,452.52],[547.3,373.98]","","true","null"
"","check_point_button","22","314912","0.0-9.0","1532721125444","10-420","1719","","<p><font size='25'>¡FELICITACIONES! <br><br> TERMINASTE EL NIVEL 2</font></p>","0","","","","","","","","",""
"","learner","23","323297","0.0-10.0-0.0","1532721125444","10-420","8382","","","","false","569","650","604","741","","[568.78,749.72],[649.98,587.83]","true","null"
"","learner","24","331928","0.0-10.0-1.0","1532721125444","10-420","8630","","","","false","234","282","264","466","[269.52,276.49],[245.22,457.66]","","true","null"
"","learner","25","339617","0.0-10.0-2.0","1532721125444","10-420","7686","","","","false","604","638","361","543","[612.82,532.58]","[633.06,350.7]","true","null"
"","learner","26","346561","0.0-10.0-3.0","1532721125444","10-420","6943","","","","false","522","615","341","433","[544.21,359.52]","[622.09,438.11]","true","null"
"","learner","27","357441","0.0-10.0-4.0","1532721125444","10-420","10879","","","","false","412","514","376","609","[448.03,377.34],[476.48,597.93]","","true","null"
"","check_point_button","28","358801","0.0-11.0","1532721125444","10-420","1359","","<p><font size='25'>¡FELICITACIONES! <br><br> TERMINASTE EL NIVEL 3</font></p>","0","","","","","","","","",""
"","learner","29","364930","0.0-12.0-0.0","1532721125444","10-420","6126","","","","false","330","439","581","760","[360.05,613.4]","[446.76,765.4]","true","null"
"","learner","30","370845","0.0-12.0-1.0","1532721125444","10-420","5914","","","","false","197","357","496","547","[344.07,535.98],[238.62,502.81]","","true","null"
"","learner","31","378509","0.0-12.0-2.0","1532721125444","10-420","7664","","","","false","600","695","498","626","[626.99,501.01],[669.55,616.25]","","true","null"
"","learner","32","389221","0.0-12.0-3.0","1532721125444","10-420","10711","","","","false","591","689","352","509","[635.42,363.29],[638.12,500.95]","","true","null"
"","learner","33","394261","0.0-12.0-4.0","1532721125444","10-420","5038","","","","false","409","495","554","726","[435.39,556.92],[457.42,713.04]","","true","null"
"","check_point_button","34","396205","0.0-13.0","1532721125444","10-420","1943","","<p><font size='25'>¡FELICITACIONES! <br><br> TERMINASTE EL NIVEL 4</font></p>","0","","","","","","","","",""
"","learner","35","402661","0.0-14.0-0.0","1532721125444","10-420","6454","","","","false","323","459","291","432","[336.63,290.68],[437.73,423.54]","","false","null"
"","learner","36","414373","0.0-14.0-1.0","1532721125444","10-420","11710","","","","false","339","637","229","420","","[328.95,226.4],[645.57,419.2]","true","null"
"","learner","37","422798","0.0-14.0-2.0","1532721125444","10-420","8423","","","","false","230","544","525","714","","[220.53,523.88],[557.56,710.84]","true","null"
"","learner","38","428446","0.0-14.0-3.0","1532721125444","10-420","5646","","","","false","440","698","312","401","[478.54,316.94],[686.83,391.11]","","true","null"
"","learner","39","439632","0.0-14.0-4.0","1532721125444","10-420","11185","","","","false","552","751","387","509","","[541.24,513.29],[755.72,379.99]","true","null"
"","check_point_button","40","440704","0.0-15.0","1532721125444","10-420","1070","","<p><font size='25'>¡FELICITACIONES! <br><br> TERMINASTE EL NIVEL 5</font></p>","0","","","","","","","","",""
"","html-button-response","41","447513","0.0-16.0","1532721125444","10-420","6808","","<p align='center' style='font-size:25px;' > ¡ACORDATE DE QUE ALGUIEN TE DEJÓ ESTAS PISTAS PARA QUE ENCUENTRES LA CAJA! </p>","0","","","","","","","","",""
"","learner","42","455728","0.0-17.0-0.0","1532721125444","10-420","8215","","","","false","556","673","243","456","","[666.24,464.97],[546.09,232.47]","true","null"
"","learner","43","462152","0.0-17.0-1.0","1532721125444","10-420","6423","","","","false","547","708","284","471","","[716.95,465.93],[538.84,282.96]","true","null"
"","learner","44","469633","0.0-17.0-2.0","1532721125444","10-420","7478","","","","false","372","432","317","448","[382.53,440.22]","[431.87,309.45]","true","null"
"","learner","45","478697","0.0-17.0-3.0","1532721125444","10-420","9062","","","","false","602","644","324","403","","[623.79,411.62],[607.61,306.95]","true","null"
"","learner","46","487137","0.0-17.0-4.0","1532721125444","10-420","8439","","","","false","592","738","671","772","[617.27,679.8]","[744.61,770.21]","true","null"
"","check_point_button","47","489064","0.0-18.0","1532721125444","10-420","1926","","<p><font size='25'>¡FELICITACIONES! <br><br> TERMINASTE EL NIVEL 6</font></p>","0","","","","","","","","",""
"","learner","48","497747","0.0-19.0-0.0","1532721125444","10-420","8681","","","","false","335","403","281","540","[395.09,532.8]","[337.95,272.8]","true","null"
"","learner","49","508610","0.0-19.0-1.0","1532721125444","10-420","10862","","","","false","441","534","377","462","[525.05,454.28]","[429.04,373.42]","true","null"
"","learner","50","515219","0.0-19.0-2.0","1532721125444","10-420","6606","","","","false","564","765","233","392","[742.4,379.46],[587.68,233.27]","","true","null"
"","learner","51","523091","0.0-19.0-3.0","1532721125444","10-420","7871","","","","false","540","662","654","757","[626.41,654.09]","[544.39,763.06]","true","null"
"","learner","52","530067","0.0-19.0-4.0","1532721125444","10-420","6975","","","","false","394","572","464","514","[541.74,466.8]","[387.88,515.81]","true","null"
"","check_point_button","53","531724","0.0-20.0","1532721125444","10-420","1655","","<p><font size='25'>¡FELICITACIONES! <br><br> TERMINASTE EL NIVEL 7</font></p>","0","","","","","","","","",""
"","learner","54","536684","0.0-21.0-0.0","1532721125444","10-420","4958","","","","false","354","535","444","532","[523.8,523.59],[411.74,456.06]","","true","null"
"","learner","55","542339","0.0-21.0-1.0","1532721125444","10-420","5654","","","","false","318","380","451","513","","[319.51,521.49],[384.82,438.4]","true","null"
"","learner","56","548588","0.0-21.0-2.0","1532721125444","10-420","6247","","","","false","568","760","468","634","","[767.99,631.93],[556.59,465.95]","true","null"
"","learner","57","559671","0.0-21.0-3.0","1532721125444","10-420","11081","","","","false","478","702","359","461","[509.37,454.61]","[710.64,360.77]","true","null"
"","learner","58","568871","0.0-21.0-4.0","1532721125444","10-420","9198","","","","false","295","360","508","683","[351.93,674.93],[303.6,531.37]","","true","null"
"","check_point_button","59","570175","0.0-22.0","1532721125444","10-420","1303","","<p><font size='25'>¡FELICITACIONES! <br><br> TERMINASTE EL NIVEL 8</font></p>","0","","","","","","","","",""
"","learner","60","580503","0.0-23.0-0.0","1532721125444","10-420","10327","","","","false","675","768","350","509","","[673.12,514.71],[765.88,342.19]","true","null"
"","learner","61","585823","0.0-23.0-1.0","1532721125444","10-420","5319","","","","false","474","547","408","551","[499.68,431.4],[522.72,543.89]","","true","null"
"","learner","62","594271","0.0-23.0-2.0","1532721125444","10-420","8445","","","","false","388","518","467","533","[402.26,525.71],[503.23,470.61]","","true","null"
"","learner","63","603456","0.0-23.0-3.0","1532721125444","10-420","9182","","","","false","258","465","463","773","[270.87,464.63]","[472.12,767.99]","true","null"
"","learner","64","615848","0.0-23.0-4.0","1532721125444","10-420","12390","","","","false","351","382","598","676","","[354.51,682.43],[385.97,588.18]","true","null"
"","check_point_button","65","617472","0.0-24.0","1532721125444","10-420","1624","","<p><font size='25'>¡FELICITACIONES! <br><br> TERMINASTE EL NIVEL 9</font></p>","0","","","","","","","","",""
"","learner","66","623299","0.0-25.0-0.0","1532721125444","10-420","5826","","","","false","626","713","488","571","","[533.77,401.47],[636.07,478.29]","true","null"
"","learner","67","629698","0.0-25.0-1.0","1532721125444","10-420","6397","","","","false","400","512","457","576","","[508.21,448.28],[398.11,577.9]","true","null"
"","learner","68","640123","0.0-25.0-2.0","1532721125444","10-420","10423","","","","false","410","494","294","406","[463.54,303.3]","[404.84,409.26]","true","null"
"","learner","69","646971","0.0-25.0-3.0","1532721125444","10-420","6847","","","","false","583","721","461","611","[671.03,462.64],[589.31,600.43]","","true","null"
"","learner","70","657979","0.0-25.0-4.0","1532721125444","10-420","11007","","","","false","223","552","307","647","","[223.65,656.5],[560.08,305.83]","true","null"
"","check_point_button","71","699648","0.0-26.0","1532721125444","10-420","41667","","<p align='center' style='font-size:30px;' > COMPLETASTE TODOS LOS NIVELES  <br><br> ¡FELICITACIONES!<br><br> PRESIONA CUALQUIER TECLA PARA TERMINAR</p>","0","","","","","","","","",""
