"success","trial_type","trial_index","time_elapsed","internal_node_id","start_time","Id","rt","responses","stimulus","button_pressed","Prueba","X_left","X_right","Y_top","Y_bottom","Circles","Crosses","Consistency","key_press"
"true","fullscreen","0","3532","0.0-0.0","1532725474546","12-431","","","","","","","","","","","","",""
"","survey-text","1","11627","0.0-1.0","1532725474546","12-431","8092","{""Q0"":""12-431""}","","","","","","","","","","",""
"","my_image_button","2","30540","0.0-2.0-0.0","1532725474546","12-431","18910","","img/caja.png","0","","","","","","","","",""
"","my_image_button","3","66694","0.0-2.0-1.0","1532725474546","12-431","36153","","img/caja_con_ejemplos.png","0","","","","","","","","",""
"","my_image_button","4","75206","0.0-2.0-2.0","1532725474546","12-431","8512","","","0","","","","","","","","",""
"","learner","5","111046","0.0-3.0-0.0","1532725474546","12-431","35834","","","","true","492","676","366","512","[505.69,375.08],[656.62,491.09]","","true","null"
"","learner","6","129352","0.0-3.0-1.0","1532725474546","12-431","18305","","","","true","729","778","391","453","[755.72,423.19]","[762.98,293.39]","true","null"
"","learner","7","143224","0.0-3.0-2.0","1532725474546","12-431","13869","","","","true","565","752","475","618","","[622.38,628.98],[678.27,437.32]","true","null"
"","learner","8","160505","0.0-3.0-3.0","1532725474546","12-431","17278","","","","true","529","612","321","425","[564.81,378.86]","[583.98,256.69]","true","null"
"","check_point_button","9","214263","0.0-4.0","1532725474546","12-431","53755","","<p><font size='25px'>ENTONCES, ¿QUÉ TENÉS QUE HACER? </font></p>","0","","","","","","","","",""
"","html-button-response","10","219678","0.0-5.0","1532725474546","12-431","5414","","<p align='center' style='font-size:25px;' > HAY 10 NIVELES <br> ¿ESTÁS LISTO/A PARA EMPEZAR? </p>","0","","","","","","","","",""
"","learner","11","230142","0.0-6.0-0.0","1532725474546","12-431","10462","","","","false","335","424","396","525","[354.46,406.16],[406.58,506.16]","","true","null"
"","learner","12","241406","0.0-6.0-1.0","1532725474546","12-431","11262","","","","false","219","361","368","470","[278.05,417.61]","[460.8,352.25]","true","null"
"","learner","13","247894","0.0-6.0-2.0","1532725474546","12-431","6486","","","","false","373","489","544","631","[473.79,614.59],[391.27,555.36]","","true","null"
"","learner","14","256630","0.0-6.0-3.0","1532725474546","12-431","8735","","","","false","528","577","409","629","[546.06,423.41],[558.6,614.15]","","true","null"
"","learner","15","272159","0.0-6.0-4.0","1532725474546","12-431","15525","","","","false","408","523","534","674","[511.63,660.53],[419.95,547.16]","","true","null"
"","check_point_button","16","281465","0.0-7.0","1532725474546","12-431","9306","","<p><font size='25'>¡FELICITACIONES! <br><br> TERMINASTE EL NIVEL 1</font></p>","0","","","","","","","","",""
"","learner","17","290434","0.0-8.0-0.0","1532725474546","12-431","8966","","","","false","560","622","382","522","[612.55,511.94],[567.17,391.2]","","true","null"
"","learner","18","299530","0.0-8.0-1.0","1532725474546","12-431","9094","","","","false","521","754","421","591","[744.17,575.16],[535.16,435.42]","","true","null"
"","learner","19","309337","0.0-8.0-2.0","1532725474546","12-431","9806","","","","false","351","449","315","428","","[472.92,271.41],[325.9,480.71]","true","null"
"","learner","20","323641","0.0-8.0-3.0","1532725474546","12-431","14301","","","","false","392","556","233","695","[457.51,249.77],[493.64,678.96]","","true","null"
"","learner","21","340653","0.0-8.0-4.0","1532725474546","12-431","17010","","","","false","634","763","310","403","[698.35,352.69]","[502.55,441.32]","true","null"
"","check_point_button","22","354933","0.0-9.0","1532725474546","12-431","14278","","<p><font size='25'>¡FELICITACIONES! <br><br> TERMINASTE EL NIVEL 2</font></p>","0","","","","","","","","",""
"","learner","23","362005","0.0-10.0-0.0","1532725474546","12-431","7070","","","","false","635","710","411","491","[672.6,452.03]","[480.06,387.63]","true","null"
"","learner","24","368940","0.0-10.0-1.0","1532725474546","12-431","6934","","","","false","444","525","455","534","[477.41,487.12]","[489.08,653.32]","true","null"
"","learner","25","376245","0.0-10.0-2.0","1532725474546","12-431","7303","","","","false","430","502","683","777","","[519.89,769.13],[405.83,690.47]","true","null"
"","learner","26","382796","0.0-10.0-3.0","1532725474546","12-431","6550","","","","false","440","571","534","722","[557.03,707.16],[455.78,557.73]","","true","null"
"","learner","27","390085","0.0-10.0-4.0","1532725474546","12-431","7287","","","","false","294","384","520","693","","[369.78,495.66],[311.8,725.82]","true","null"
"","check_point_button","28","395157","0.0-11.0","1532725474546","12-431","5071","","<p><font size='25'>¡FELICITACIONES! <br><br> TERMINASTE EL NIVEL 3</font></p>","0","","","","","","","","",""
"","learner","29","402176","0.0-12.0-0.0","1532725474546","12-431","7016","","","","false","544","725","525","704","[558.2,539.31],[708.14,677.94]","","true","null"
"","learner","30","424215","0.0-12.0-1.0","1532725474546","12-431","22037","","","","false","498","543","466","528","[520.07,493.89]","[360.41,410.28]","true","null"
"","learner","31","430280","0.0-12.0-2.0","1532725474546","12-431","6062","","","","false","431","534","410","627","","[513.11,642.5],[441.53,377.08]","true","null"
"","learner","32","436576","0.0-12.0-3.0","1532725474546","12-431","6294","","","","false","635","723","373","498","[704.88,477.31],[643.62,384.74]","","true","null"
"","learner","33","451912","0.0-12.0-4.0","1532725474546","12-431","15334","","","","false","585","643","382","463","[610.39,418.84]","[629.28,550.81]","true","null"
"","check_point_button","34","454104","0.0-13.0","1532725474546","12-431","2192","","<p><font size='25'>¡FELICITACIONES! <br><br> TERMINASTE EL NIVEL 4</font></p>","0","","","","","","","","",""
"","learner","35","469778","0.0-14.0-0.0","1532725474546","12-431","15672","","","","false","580","681","387","523","[598.89,406.05],[655.88,499.4]","","true","null"
"","learner","36","476850","0.0-14.0-1.0","1532725474546","12-431","7070","","","","false","293","431","424","570","[302.68,432.19],[416.9,549.6]","","true","null"
"","learner","37","487683","0.0-14.0-2.0","1532725474546","12-431","10831","","","","false","304","376","462","527","","[284.76,502.98],[391.13,474.37]","true","null"
"","learner","38","494555","0.0-14.0-3.0","1532725474546","12-431","6871","","","","false","497","559","510","671","[521.26,656.25],[525.78,521.06]","","true","null"
"","learner","39","501427","0.0-14.0-4.0","1532725474546","12-431","6869","","","","false","530","531","967","971","[558.76,681.13]","[208.87,541.26]","true","null"
"","check_point_button","40","504204","0.0-15.0","1532725474546","12-431","2776","","<p><font size='25'>¡FELICITACIONES! <br><br> TERMINASTE EL NIVEL 5</font></p>","0","","","","","","","","",""
"","html-button-response","41","511851","0.0-16.0","1532725474546","12-431","7647","","<p align='center' style='font-size:25px;' > ¡ACORDATE DE QUE ALGUIEN TE DEJÓ ESTAS PISTAS PARA QUE ENCUENTRES LA CAJA! </p>","0","","","","","","","","",""
"","learner","42","523150","0.0-17.0-0.0","1532725474546","12-431","11297","","","","false","426","494","547","607","[457.27,567.43]","[543.26,476.07]","true","null"
"","learner","43","532798","0.0-17.0-1.0","1532725474546","12-431","9647","","","","false","294","412","720","803","[333.11,756.79]","[720.61,516.13]","true","null"
"","learner","44","543311","0.0-17.0-2.0","1532725474546","12-431","10510","","","","false","343","467","563","717","[366.79,698.78],[445.09,579.55]","","true","null"
"","learner","45","552935","0.0-17.0-3.0","1532725474546","12-431","9622","","","","false","505","575","283","354","","[569.99,372.45],[514.6,269.1]","true","null"
"","learner","46","559264","0.0-17.0-4.0","1532725474546","12-431","6327","","","","false","526","677","600","703","","[496.93,608.37],[697.4,684.24]","true","null"
"","check_point_button","47","564671","0.0-18.0","1532725474546","12-431","5407","","<p><font size='25'>¡FELICITACIONES! <br><br> TERMINASTE EL NIVEL 6</font></p>","0","","","","","","","","",""
"","learner","48","570502","0.0-19.0-0.0","1532725474546","12-431","5830","","","","false","355","423","486","542","[388.81,512.33]","[253.61,450.34]","true","null"
"","learner","49","576536","0.0-19.0-1.0","1532725474546","12-431","6030","","","","false","281","428","363","513","","[431.94,345.52],[272.36,535.53]","true","null"
"","learner","50","587929","0.0-19.0-2.0","1532725474546","12-431","11393","","","","false","190","250","541","622","","[223.72,641.96],[201.5,511.75]","true","null"
"","learner","51","595657","0.0-19.0-3.0","1532725474546","12-431","7725","","","","false","319","578","427","670","","[599.14,646.67],[298.53,436.96]","true","null"
"","learner","52","604737","0.0-19.0-4.0","1532725474546","12-431","9079","","","","false","593","670","487","586","[629.48,504.63]","[718.05,714.52]","true","null"
"","check_point_button","53","606633","0.0-20.0","1532725474546","12-431","1895","","<p><font size='25'>¡FELICITACIONES! <br><br> TERMINASTE EL NIVEL 7</font></p>","0","","","","","","","","",""
"","learner","54","613073","0.0-21.0-0.0","1532725474546","12-431","6438","","","","false","504","580","270","343","[529.29,283.44]","[727.55,338.13]","true","null"
"","learner","55","620209","0.0-21.0-1.0","1532725474546","12-431","7134","","","","false","369","532","542","654","[482.1,567.13],[391.68,645.25]","","true","null"
"","learner","56","626202","0.0-21.0-2.0","1532725474546","12-431","5990","","","","false","399","493","565","684","[482.75,576.06],[414.52,672.97]","","true","null"
"","learner","57","631858","0.0-21.0-3.0","1532725474546","12-431","5655","","","","false","361","456","455","690","","[355.41,436.78],[467.21,685.9]","true","null"
"","learner","58","639089","0.0-21.0-4.0","1532725474546","12-431","7231","","","","false","519","656","421","651","","[513.16,404.92],[667.1,640.67]","true","null"
"","check_point_button","59","641354","0.0-22.0","1532725474546","12-431","2264","","<p><font size='25'>¡FELICITACIONES! <br><br> TERMINASTE EL NIVEL 8</font></p>","0","","","","","","","","",""
"","learner","60","648508","0.0-23.0-0.0","1532725474546","12-431","7153","","","","false","588","626","553","622","[608.07,571.63]","[418.27,777.13]","true","null"
"","learner","61","652893","0.0-23.0-1.0","1532725474546","12-431","4383","","","","false","431","515","358","585","","[496.42,611.72],[442.66,336.97]","true","null"
"","learner","62","662685","0.0-23.0-2.0","1532725474546","12-431","9791","","","","false","691","749","599","659","","[672.39,662.65],[761.81,593.09]","true","null"
"","learner","63","669133","0.0-23.0-3.0","1532725474546","12-431","6447","","","","false","326","418","525","772","","[426.84,771.98],[326.39,501.49]","true","null"
"","learner","64","675045","0.0-23.0-4.0","1532725474546","12-431","5911","","","","false","312","458","515","666","","[301.79,503.82],[470.5,655.77]","true","null"
"","check_point_button","65","676862","0.0-24.0","1532725474546","12-431","1815","","<p><font size='25'>¡FELICITACIONES! <br><br> TERMINASTE EL NIVEL 9</font></p>","0","","","","","","","","",""
"","learner","66","681782","0.0-25.0-0.0","1532725474546","12-431","4919","","","","false","307","352","453","527","[325.58,471.79]","[336.55,684.89]","true","null"
"","learner","67","692669","0.0-25.0-1.0","1532725474546","12-431","10887","","","","false","669","740","484","543","[714.36,527.18]","[554.53,468.02]","true","null"
"","learner","68","698406","0.0-25.0-2.0","1532725474546","12-431","5734","","","","false","614","676","371","486","","[646.93,360.6],[628.84,503.54]","true","null"
"","learner","69","709384","0.0-25.0-3.0","1532725474546","12-431","10976","","","","false","542","584","334","619","","[572.03,319.34],[545.51,630.53]","true","null"
"","learner","70","718320","0.0-25.0-4.0","1532725474546","12-431","8934","","","","false","677","737","324","375","[721.18,353.04]","[592.69,276.52]","true","null"
"","check_point_button","71","733208","0.0-26.0","1532725474546","12-431","14886","","<p align='center' style='font-size:30px;' > COMPLETASTE TODOS LOS NIVELES  <br><br> ¡FELICITACIONES!<br><br> PRESIONA CUALQUIER TECLA PARA TERMINAR</p>","0","","","","","","","","",""
