"success","trial_type","trial_index","time_elapsed","internal_node_id","start_time","Id","rt","responses","stimulus","button_pressed","Prueba","X_left","X_right","Y_top","Y_bottom","Circles","Crosses","key_press"
"true","fullscreen","0","1990","0.0-0.0","1532717793797","14-417","","","","","","","","","","","",""
"","survey-text","1","8370","0.0-1.0","1532717793797","14-417","6377","{""Q0"":""14-417""}","","","","","","","","","",""
"","my_image_button","2","22025","0.0-2.0-0.0","1532717793797","14-417","13653","","img/caja.png","0","","","","","","","",""
"","my_image_button","3","37977","0.0-2.0-1.0","1532717793797","14-417","15951","","img/caja_con_ejemplos.png","0","","","","","","","",""
"","my_image_button","4","43241","0.0-2.0-2.0","1532717793797","14-417","5263","","","0","","","","","","","",""
"","teacher","5","61909","0.0-3.0-0.0","1532717793797","14-417","8846","","","","true","631.93","729.13","153.84","533.41","[680,340],[684,394]","","null"
"","teacher","6","79549","0.0-3.0-1.0","1532717793797","14-417","6981","","","","true","654.75","751.95","181.51","278.71","","[618,235],[781,230]","null"
"","teacher","7","92829","0.0-3.0-2.0","1532717793797","14-417","4477","","","","true","727.81","849.23","447.23","544.43","[789,493]","[784,419]","null"
"","teacher","8","108764","0.0-3.0-3.0","1532717793797","14-417","6782","","","","true","343.32","468.54","683.62","780.82","[355,771]","[487,663]","null"
"","check_point_button","9","139128","0.0-4.0","1532717793797","14-417","30362","","<p><font size='25px'>ENTONCES, ¿QUÉ TENÉS QUE HACER? </font></p>","0","","","","","","","",""
"","html-button-response","10","151112","0.0-5.0","1532717793797","14-417","11983","","<p align='center' style='font-size:25px;' > HAY 10 NIVELES <br> ¿ESTÁS LISTO/A PARA EMPEZAR? </p>","0","","","","","","","",""
"","teacher","11","161464","0.0-6.0-0.0","1532717793797","14-417","7798","","","","false","657.3","754.5","99.22","196.42","[703,143],[704,169]","","null"
"","teacher","12","168648","0.0-6.0-1.0","1532717793797","14-417","4894","","","","false","730.5","869.94","410.28","720.93","[798,535]","[610,537]","null"
"","teacher","13","179352","0.0-6.0-2.0","1532717793797","14-417","8815","","","","false","751.9","849.1","240.91","856.59","[799,528]","[802,218]","null"
"","teacher","14","184264","0.0-6.0-3.0","1532717793797","14-417","3479","","","","false","529.39","626.59","763.86","861.06","","[644,752],[516,873]","null"
"","teacher","15","188576","0.0-6.0-4.0","1532717793797","14-417","3103","","","","false","666.04","790.91","539.51","699.18","[723,610]","[810,712]","null"
"","check_point_button","16","192184","0.0-7.0","1532717793797","14-417","3608","","<p><font size='25'>¡FELICITACIONES! <br><br> TERMINASTE EL NIVEL 1</font></p>","0","","","","","","","",""
"","teacher","17","199059","0.0-8.0-0.0","1532717793797","14-417","5495","","","","false","361.52","705.69","439.05","728.21","","[347,743],[726,741]","null"
"","teacher","18","203243","0.0-8.0-1.0","1532717793797","14-417","2951","","","","false","592.7","689.9","754.68","851.88","[680,842]","[577,739]","null"
"","teacher","19","208450","0.0-8.0-2.0","1532717793797","14-417","3704","","","","false","537.26","677.29","240.66","803.15","[553,791]","[679,229]","null"
"","teacher","20","212706","0.0-8.0-3.0","1532717793797","14-417","3086","","","","false","533.86","651.17","308.15","634.09","[583,456]","[698,451]","null"
"","teacher","21","216290","0.0-8.0-4.0","1532717793797","14-417","2599","","","","false","759.21","856.41","577.05","715.68","","[745,650],[876,646]","null"
"","check_point_button","22","219124","0.0-9.0","1532717793797","14-417","2833","","<p><font size='25'>¡FELICITACIONES! <br><br> TERMINASTE EL NIVEL 2</font></p>","0","","","","","","","",""
"","teacher","23","222795","0.0-10.0-0.0","1532717793797","14-417","2350","","","","false","189.56","394.08","575.06","672.26","[291,624]","[413,559]","null"
"","teacher","24","229739","0.0-10.0-1.0","1532717793797","14-417","5655","","","","false","233.98","625.21","163.16","260.36","[416,214]","[422,282]","null"
"","teacher","25","234475","0.0-10.0-2.0","1532717793797","14-417","3207","","","","false","715.92","813.12","678.2","843.03","","[702,669],[830,850]","null"
"","teacher","26","238026","0.0-10.0-3.0","1532717793797","14-417","2496","","","","false","438.01","535.21","459.36","751.42","[484,586]","[557,584]","null"
"","teacher","27","244483","0.0-10.0-4.0","1532717793797","14-417","4158","","","","false","328.29","661.98","423.88","549.41","","[310,488],[675,416]","null"
"","check_point_button","28","246964","0.0-11.0","1532717793797","14-417","2479","","<p><font size='25'>¡FELICITACIONES! <br><br> TERMINASTE EL NIVEL 3</font></p>","0","","","","","","","",""
"","teacher","29","251696","0.0-12.0-0.0","1532717793797","14-417","3655","","","","false","266.23","661.38","189.07","396.73","[453,291],[646,384]","","null"
"","teacher","30","256627","0.0-12.0-1.0","1532717793797","14-417","3338","","","","false","586.96","740.66","341.29","448.66","[591,353]","[745,447]","null"
"","teacher","31","262958","0.0-12.0-2.0","1532717793797","14-417","4546","","","","false","284.5","796.2","637.68","734.88","[286,640]","[796,736]","null"
"","teacher","32","266334","0.0-12.0-3.0","1532717793797","14-417","2542","","","","false","446.99","700.06","588.83","686.03","[545,590]","[549,700]","null"
"","teacher","33","270022","0.0-12.0-4.0","1532717793797","14-417","2647","","","","false","474.24","658.96","560.6","657.8","[647,610]","[471,611]","null"
"","check_point_button","34","272502","0.0-13.0","1532717793797","14-417","2480","","<p><font size='25'>¡FELICITACIONES! <br><br> TERMINASTE EL NIVEL 4</font></p>","0","","","","","","","",""
"","teacher","35","277614","0.0-14.0-0.0","1532717793797","14-417","3062","","","","false","188.96","476.44","609.54","852.44","[338,718]","[480,610]","null"
"","teacher","36","283702","0.0-14.0-1.0","1532717793797","14-417","4933","","","","false","205.96","827.63","488.43","623.98","[823,497]","[199,626]","null"
"","teacher","37","289607","0.0-14.0-2.0","1532717793797","14-417","4303","","","","false","153.55","397.23","123.79","270.42","[156,128]","[398,271]","null"
"","teacher","38","293814","0.0-14.0-3.0","1532717793797","14-417","3183","","","","false","506.85","708.5","584.15","681.35","[705,675]","[506,586]","null"
"","teacher","39","298399","0.0-14.0-4.0","1532717793797","14-417","3597","","","","false","533.09","630.29","243.97","687.85","[543,251],[590,687]","","null"
"","check_point_button","40","300863","0.0-15.0","1532717793797","14-417","2463","","<p><font size='25'>¡FELICITACIONES! <br><br> TERMINASTE EL NIVEL 5</font></p>","0","","","","","","","",""
"","html-button-response","41","308670","0.0-16.0","1532717793797","14-417","7807","","<p align='center' style='font-size:25px;' > ¡ACORDATE DE QUE CON ESTAS PISTAS OTRO JUGADOR TENDRÁ QUE ADIVINAR EN DÓNDE ESTÁ LA CAJA! </p>","0","","","","","","","",""
"","teacher","42","315646","0.0-17.0-0.0","1532717793797","14-417","4710","","","","false","441.11","538.31","274.91","778.25","[485,277]","[486,780]","null"
"","teacher","43","319975","0.0-17.0-1.0","1532717793797","14-417","2895","","","","false","194.32","322.33","377.39","475.41","[251,380],[322,475]","","null"
"","teacher","44","324120","0.0-17.0-2.0","1532717793797","14-417","3369","","","","false","554.41","686.7","775.25","872.45","","[686,775],[553,874]","null"
"","teacher","45","328745","0.0-17.0-3.0","1532717793797","14-417","3407","","","","false","144.46","365.25","625.33","850.8","","[144,625],[370,851]","null"
"","teacher","46","334089","0.0-17.0-4.0","1532717793797","14-417","4246","","","","false","273.06","567.26","371.38","851","[275,843]","[568,373]","null"
"","check_point_button","47","336297","0.0-18.0","1532717793797","14-417","2208","","<p><font size='25'>¡FELICITACIONES! <br><br> TERMINASTE EL NIVEL 6</font></p>","0","","","","","","","",""
"","teacher","48","341905","0.0-19.0-0.0","1532717793797","14-417","4463","","","","false","595.44","692.64","395.35","771.14","[596,396]","[690,772]","null"
"","teacher","49","348944","0.0-19.0-1.0","1532717793797","14-417","5261","","","","false","419.53","587.92","167.55","298.54","[574,237]","[419,170]","null"
"","teacher","50","353288","0.0-19.0-2.0","1532717793797","14-417","2951","","","","false","700.05","797.25","446.9","544.1","[788,455],[708,540]","","null"
"","teacher","51","358328","0.0-19.0-3.0","1532717793797","14-417","3775","","","","false","463.17","834.83","418.97","540.42","","[836,469],[463,469]","null"
"","teacher","52","362752","0.0-19.0-4.0","1532717793797","14-417","2488","","","","false","685.95","783.15","279.89","377.09","[757,283]","[748,380]","null"
"","check_point_button","53","364536","0.0-20.0","1532717793797","14-417","1784","","<p><font size='25'>¡FELICITACIONES! <br><br> TERMINASTE EL NIVEL 7</font></p>","0","","","","","","","",""
"","teacher","54","368088","0.0-21.0-0.0","1532717793797","14-417","2239","","","","false","100.62","241.12","654.97","802.84","[186,661],[176,799]","","null"
"","teacher","55","373952","0.0-21.0-1.0","1532717793797","14-417","2719","","","","false","733.27","830.47","467.09","775.5","[786,468],[763,775]","","null"
"","teacher","56","378552","0.0-21.0-2.0","1532717793797","14-417","2863","","","","false","671.09","768.29","162.94","380.25","","[770,163],[671,382]","null"
"","teacher","57","382803","0.0-21.0-3.0","1532717793797","14-417","3072","","","","false","677.73","774.93","529.18","708.61","[730,531]","[730,718]","null"
"","teacher","58","386099","0.0-21.0-4.0","1532717793797","14-417","2120","","","","false","744.97","842.17","480.58","825.02","","[768,437],[798,844]","null"
"","check_point_button","59","387507","0.0-22.0","1532717793797","14-417","1407","","<p><font size='25'>¡FELICITACIONES! <br><br> TERMINASTE EL NIVEL 8</font></p>","0","","","","","","","",""
"","teacher","60","391043","0.0-23.0-0.0","1532717793797","14-417","2399","","","","false","361.44","461.47","453.22","734.22","","[426,451],[425,735]","null"
"","teacher","61","395435","0.0-23.0-1.0","1532717793797","14-417","2695","","","","false","225.32","343.92","772.19","869.39","[230,814]","[344,797]","null"
"","teacher","62","399899","0.0-23.0-2.0","1532717793797","14-417","2831","","","","false","219.5","316.7","322.69","438.15","","[252,319],[239,441]","null"
"","teacher","63","405451","0.0-23.0-3.0","1532717793797","14-417","4087","","","","false","484.2","866.43","269.41","373.83","[492,271]","[878,373]","null"
"","teacher","64","409987","0.0-23.0-4.0","1532717793797","14-417","3373","","","","false","704.16","828.98","276.26","782.03","[731,278]","[762,784]","null"
"","check_point_button","65","412243","0.0-24.0","1532717793797","14-417","2255","","<p><font size='25'>¡FELICITACIONES! <br><br> TERMINASTE EL NIVEL 9</font></p>","0","","","","","","","",""
"","teacher","66","416308","0.0-25.0-0.0","1532717793797","14-417","3102","","","","false","200.88","665.57","685.38","782.58","[450,689]","[456,785]","null"
"","teacher","67","420323","0.0-25.0-1.0","1532717793797","14-417","2982","","","","false","247.23","344.43","518.82","681.56","","[345,518],[250,682]","null"
"","teacher","68","425180","0.0-25.0-2.0","1532717793797","14-417","3055","","","","false","613.91","767.98","301.13","853.52","[668,306],[685,853]","","null"
"","teacher","69","429283","0.0-25.0-3.0","1532717793797","14-417","3078","","","","false","251.63","720.61","729.67","826.87","[509,732]","[513,829]","null"
"","teacher","70","438436","0.0-25.0-4.0","1532717793797","14-417","3294","","","","false","761.81","859.01","693.53","790.73","[809,725],[763,790]","","null"
"","check_point_button","71","496343","0.0-26.0","1532717793797","14-417","57907","","<p align='center' style='font-size:30px;' > COMPLETASTE TODOS LOS NIVELES  <br><br> ¡FELICITACIONES!<br><br> PRESIONA CUALQUIER TECLA PARA TERMINAR</p>","0","","","","","","","",""
