"success","trial_type","trial_index","time_elapsed","internal_node_id","start_time","Id","rt","responses","stimulus","button_pressed","Prueba","X_left","X_right","Y_top","Y_bottom","Circles","Crosses","Consistency","key_press"
"true","fullscreen","0","3205","0.0-0.0","1532723759537","7-426","","","","","","","","","","","","",""
"","survey-text","1","16661","0.0-1.0","1532723759537","7-426","13452","{""Q0"":""7-426""}","","","","","","","","","","",""
"","my_image_button","2","49325","0.0-2.0-0.0","1532723759537","7-426","32662","","img/caja.png","0","","","","","","","","",""
"","my_image_button","3","135597","0.0-2.0-1.0","1532723759537","7-426","86271","","img/caja_con_ejemplos.png","0","","","","","","","","",""
"","my_image_button","4","166470","0.0-2.0-2.0","1532723759537","7-426","30872","","","0","","","","","","","","",""
"","learner","5","198323","0.0-3.0-0.0","1532723759537","7-426","31847","","","","true","175","484","527","704","[344.47,554.31],[301.91,701.29]","","true","null"
"","learner","6","208556","0.0-3.0-1.0","1532723759537","7-426","10231","","","","true","366","495","489","550","[432.27,503.63]","[512.12,436.35]","true","null"
"","learner","7","228932","0.0-3.0-2.0","1532723759537","7-426","20373","","","","true","368","535","182","330","","[308.17,295.89],[554.34,214.23]","true","null"
"","learner","8","238147","0.0-3.0-3.0","1532723759537","7-426","9213","","","","true","300","368","461","545","[332.33,498.04]","[270.72,421.55]","true","null"
"","check_point_button","9","281132","0.0-4.0","1532723759537","7-426","42984","","<p><font size='25px'>ENTONCES, ¿QUÉ TENÉS QUE HACER? </font></p>","1","","","","","","","","",""
"","html-button-response","10","288250","0.0-5.0","1532723759537","7-426","7117","","<p align='center' style='font-size:25px;' > HAY 10 NIVELES <br> ¿ESTÁS LISTO/A PARA EMPEZAR? </p>","0","","","","","","","","",""
"","learner","11","301306","0.0-6.0-0.0","1532723759537","7-426","13054","","","","false","70","756","248","795","[525.74,336.47],[258.45,674.85]","","true","null"
"","learner","12","358900","0.0-6.0-1.0","1532723759537","7-426","57592","","","","false","451","489","601","652","[497.97,581.43]","[360.1,498.97]","false","null"
"","learner","13","367356","0.0-6.0-2.0","1532723759537","7-426","8455","","","","false","418","638","286","498","[509.69,324.4],[559.63,461.9]","","true","null"
"","learner","14","371468","0.0-6.0-3.0","1532723759537","7-426","4111","","","","false","478","553","500","688","[521.01,654.54],[521.12,540.66]","","true","null"
"","learner","15","394317","0.0-6.0-4.0","1532723759537","7-426","22848","","","","false","647","679","279","295","[661.37,289.47]","[566.5,527.25]","true","null"
"","check_point_button","16","401535","0.0-7.0","1532723759537","7-426","7218","","<p><font size='25'>¡FELICITACIONES! <br><br> TERMINASTE EL NIVEL 1</font></p>","0","","","","","","","","",""
"","learner","17","408640","0.0-8.0-0.0","1532723759537","7-426","7101","","","","false","571","614","407","451","[584.86,431.78]","[702.95,684.87]","true","null"
"","learner","18","413095","0.0-8.0-1.0","1532723759537","7-426","4454","","","","false","346","398","493","567","[369.38,544.49]","[361.34,236.34]","true","null"
"","learner","19","430728","0.0-8.0-2.0","1532723759537","7-426","17631","","","","false","621","698","457","655","[641.95,510.1],[669.36,630.01]","","true","null"
"","learner","20","443848","0.0-8.0-3.0","1532723759537","7-426","13118","","","","false","397","428","380","415","[413.18,395.16]","[213.61,578.68]","true","null"
"","learner","21","455904","0.0-8.0-4.0","1532723759537","7-426","12055","","","","false","553","632","511","665","","[518.35,527.6],[668.34,662.99]","true","null"
"","check_point_button","22","459513","0.0-9.0","1532723759537","7-426","3608","","<p><font size='25'>¡FELICITACIONES! <br><br> TERMINASTE EL NIVEL 2</font></p>","0","","","","","","","","",""
"","learner","23","470803","0.0-10.0-0.0","1532723759537","7-426","11288","","","","false","526","542","658","711","[530.75,679.65]","[325.77,366.73]","true","null"
"","learner","24","477875","0.0-10.0-1.0","1532723759537","7-426","7071","","","","false","517","620","280","471","","[572.56,494.53],[567.81,236.45]","true","null"
"","learner","25","490467","0.0-10.0-2.0","1532723759537","7-426","12589","","","","false","376","549","479","645","[439.82,499.93],[520.55,621.6]","","true","null"
"","learner","26","498867","0.0-10.0-3.0","1532723759537","7-426","8399","","","","false","465","534","323","496","[523.04,361.55],[487.38,473]","","true","null"
"","learner","27","511484","0.0-10.0-4.0","1532723759537","7-426","12614","","","","false","688","700","235","265","[693.32,244.94]","[423.33,596.89]","true","null"
"","check_point_button","28","515476","0.0-11.0","1532723759537","7-426","3991","","<p><font size='25'>¡FELICITACIONES! <br><br> TERMINASTE EL NIVEL 3</font></p>","0","","","","","","","","",""
"","learner","29","526247","0.0-12.0-0.0","1532723759537","7-426","10769","","","","false","534","627","573","690","","[600.18,524.55],[567.36,751.74]","true","null"
"","learner","30","535631","0.0-12.0-1.0","1532723759537","7-426","9382","","","","false","535","602","475","653","[563.71,485.35],[552.43,619.93]","","true","null"
"","learner","31","544887","0.0-12.0-2.0","1532723759537","7-426","9256","","","","false","436","602","341","632","[576.25,367.88],[449.08,609.94]","","true","null"
"","learner","32","551255","0.0-12.0-3.0","1532723759537","7-426","6367","","","","false","530","656","973","1071","","[379.95,405.06],[226.6,504.05]","true","null"
"","learner","33","556808","0.0-12.0-4.0","1532723759537","7-426","5551","","","","false","575","651","416","569","","[534.18,432.25],[675.91,576.87]","true","null"
"","check_point_button","34","560008","0.0-13.0","1532723759537","7-426","3199","","<p><font size='25'>¡FELICITACIONES! <br><br> TERMINASTE EL NIVEL 4</font></p>","0","","","","","","","","",""
"","learner","35","571487","0.0-14.0-0.0","1532723759537","7-426","11477","","","","false","298","487","542","684","[379.9,666.05],[468.38,566.11]","","true","null"
"","learner","36","577888","0.0-14.0-1.0","1532723759537","7-426","6398","","","","false","352","615","514","606","[396.49,542.95],[570.69,590.48]","","true","null"
"","learner","37","592018","0.0-14.0-2.0","1532723759537","7-426","14128","","","","false","358","489","632","766","[417.99,749.29],[471.95,665.42]","","true","null"
"","learner","38","597449","0.0-14.0-3.0","1532723759537","7-426","5431","","","","false","460","615","437","579","[580.1,551.61],[482.64,455.64]","","true","null"
"","learner","39","603801","0.0-14.0-4.0","1532723759537","7-426","6351","","","","false","446","521","371","471","[502.54,420.94]","[425.49,338.39]","true","null"
"","check_point_button","40","607490","0.0-15.0","1532723759537","7-426","3688","","<p><font size='25'>¡FELICITACIONES! <br><br> TERMINASTE EL NIVEL 5</font></p>","0","","","","","","","","",""
"","html-button-response","41","613562","0.0-16.0","1532723759537","7-426","6072","","<p align='center' style='font-size:25px;' > ¡ACORDATE DE QUE ALGUIEN TE DEJÓ ESTAS PISTAS PARA QUE ENCUENTRES LA CAJA! </p>","0","","","","","","","","",""
"","learner","42","623889","0.0-17.0-0.0","1532723759537","7-426","10326","","","","false","635","740","341","484","","[617.87,319.17],[723.01,501.37]","true","null"
"","learner","43","630650","0.0-17.0-1.0","1532723759537","7-426","6758","","","","false","474","531","517","748","","[495.14,476.17],[508.71,749.88]","true","null"
"","learner","44","635706","0.0-17.0-2.0","1532723759537","7-426","5055","","","","false","316","388","604","676","","[358.6,687.04],[354.11,582.11]","true","null"
"","learner","45","646669","0.0-17.0-3.0","1532723759537","7-426","10962","","","","false","581","635","550","632","","[609.24,672.43],[598.67,507.14]","true","null"
"","learner","46","652421","0.0-17.0-4.0","1532723759537","7-426","5750","","","","false","517","681","557","847","","[740.92,718.5],[458.16,617.9]","true","null"
"","check_point_button","47","657701","0.0-18.0","1532723759537","7-426","5278","","<p><font size='25'>¡FELICITACIONES! <br><br> TERMINASTE EL NIVEL 6</font></p>","0","","","","","","","","",""
"","learner","48","671389","0.0-19.0-0.0","1532723759537","7-426","13686","","","","false","533","638","491","607","","[491.17,477.89],[739.81,560.34]","true","null"
"","learner","49","696518","0.0-19.0-1.0","1532723759537","7-426","25128","","","","false","302","646","441","781","[595.1,695.42],[530.56,586.09]","","true","null"
"","learner","50","701398","0.0-19.0-2.0","1532723759537","7-426","4879","","","","false","724","765","465","557","[735.17,498.3]","[594.11,398.35]","true","null"
"","learner","51","713728","0.0-19.0-3.0","1532723759537","7-426","12329","","","","false","432","510","555","683","","[504.93,534.95],[432.87,703.12]","true","null"
"","learner","52","723633","0.0-19.0-4.0","1532723759537","7-426","9902","","","","false","51","824","29","964","[663.01,527.94],[309.83,698.15]","","true","null"
"","check_point_button","53","726409","0.0-20.0","1532723759537","7-426","2775","","<p><font size='25'>¡FELICITACIONES! <br><br> TERMINASTE EL NIVEL 7</font></p>","0","","","","","","","","",""
"","learner","54","731785","0.0-21.0-0.0","1532723759537","7-426","5374","","","","false","329","443","371","471","[352.97,403.63]","[500.07,665.82]","true","null"
"","learner","55","741609","0.0-21.0-1.0","1532723759537","7-426","9822","","","","false","491","722","223","444","[674.65,278.48],[560.37,419]","","true","null"
"","learner","56","758042","0.0-21.0-2.0","1532723759537","7-426","16431","","","","false","366","468","499","585","","[295.2,505.45],[410.25,602.09]","true","null"
"","learner","57","771828","0.0-21.0-3.0","1532723759537","7-426","13785","","","","false","208","320","280","416","[259.54,397.85]","[206.25,216.75]","true","null"
"","learner","58","776708","0.0-21.0-4.0","1532723759537","7-426","4879","","","","false","481","612","573","783","","[452.54,494.94],[383.3,624.16]","true","null"
"","check_point_button","59","784877","0.0-22.0","1532723759537","7-426","8167","","<p><font size='25'>¡FELICITACIONES! <br><br> TERMINASTE EL NIVEL 8</font></p>","0","","","","","","","","",""
"","learner","60","821395","0.0-23.0-0.0","1532723759537","7-426","36517","","","","false","353","538","378","741","[512.64,597.81],[407.31,447.55]","","true","null"
"","learner","61","825788","0.0-23.0-1.0","1532723759537","7-426","4391","","","","false","418","455","521","598","[434.67,538.85]","[632.92,592.35]","true","null"
"","learner","62","831046","0.0-23.0-2.0","1532723759537","7-426","5257","","","","false","467","626","368","452","","[486.34,462.2],[655.8,342.48]","true","null"
"","learner","63","843638","0.0-23.0-3.0","1532723759537","7-426","12591","","","","false","195","432","342","594","[297.19,570.69],[377.52,408.04]","","true","null"
"","learner","64","872679","0.0-23.0-4.0","1532723759537","7-426","29039","","","","false","499","551","898","973","[514.87,590.05]","[367.2,668.41]","false","null"
"","check_point_button","65","876679","0.0-24.0","1532723759537","7-426","3998","","<p><font size='25'>¡FELICITACIONES! <br><br> TERMINASTE EL NIVEL 9</font></p>","0","","","","","","","","",""
"","learner","66","882039","0.0-25.0-0.0","1532723759537","7-426","5358","","","","false","520","630","422","464","[588.85,435.13]","[514.13,291.23]","true","null"
"","learner","67","886903","0.0-25.0-1.0","1532723759537","7-426","4863","","","","false","512","558","589","694","[538.44,646.57]","[666.69,508.14]","true","null"
"","learner","68","892659","0.0-25.0-2.0","1532723759537","7-426","5751","","","","false","432","516","523","608","","[314.68,605.51],[555.73,521.76]","true","null"
"","learner","69","897306","0.0-25.0-3.0","1532723759537","7-426","4646","","","","false","413","565","483","629","","[422.99,315.87],[415.55,686.43]","true","null"
"","learner","70","903730","0.0-25.0-4.0","1532723759537","7-426","6423","","","","false","316","455","359","475","","[395.41,572.28],[428.48,200.22]","true","null"
"","check_point_button","71","912771","0.0-26.0","1532723759537","7-426","9039","","<p align='center' style='font-size:30px;' > COMPLETASTE TODOS LOS NIVELES  <br><br> ¡FELICITACIONES!<br><br> PRESIONA CUALQUIER TECLA PARA TERMINAR</p>","0","","","","","","","","",""
