"success","trial_type","trial_index","time_elapsed","internal_node_id","start_time","Id","rt","responses","stimulus","button_pressed","Prueba","X_left","X_right","Y_top","Y_bottom","Circles","Crosses","Consistency","key_press"
"true","fullscreen","0","3287","0.0-0.0","1532714916584","8-412","","","","","","","","","","","","",""
"","survey-text","1","11628","0.0-1.0","1532714916584","8-412","8338","{""Q0"":""8-412""}","","","","","","","","","","",""
"","my_image_button","2","30931","0.0-2.0-0.0","1532714916584","8-412","19300","","img/caja.png","0","","","","","","","","",""
"","my_image_button","3","52315","0.0-2.0-1.0","1532714916584","8-412","21382","","img/caja_con_ejemplos.png","0","","","","","","","","",""
"","my_image_button","4","62308","0.0-2.0-2.0","1532714916584","8-412","9993","","","0","","","","","","","","",""
"","learner","5","89798","0.0-3.0-0.0","1532714916584","8-412","27483","","","","true","354","577","284","430","[430.28,391.4],[493.33,301.22]","","true","null"
"","learner","6","113621","0.0-3.0-1.0","1532714916584","8-412","23821","","","","true","533","662","395","500","[568.04,427.19]","[476.76,517]","true","null"
"","learner","7","141001","0.0-3.0-2.0","1532714916584","8-412","27377","","","","true","433","625","472","594","","[427.96,752.34],[399.73,622.23]","true","null"
"","learner","8","147673","0.0-3.0-3.0","1532714916584","8-412","6670","","","","true","661","817","488","607","[712.76,531.95]","[619.75,661.55]","true","null"
"","check_point_button","9","181585","0.0-4.0","1532714916584","8-412","33911","","<p><font size='25px'>ENTONCES, ¿QUÉ TENÉS QUE HACER? </font></p>","0","","","","","","","","",""
"","html-button-response","10","190882","0.0-5.0","1532714916584","8-412","9296","","<p align='center' style='font-size:25px;' > HAY 10 NIVELES <br> ¿ESTÁS LISTO/A PARA EMPEZAR? </p>","0","","","","","","","","",""
"","learner","11","210941","0.0-6.0-0.0","1532714916584","8-412","20055","","","","false","516","719","460","597","[611.81,492.84]","[287.09,618.45]","true","null"
"","learner","12","220573","0.0-6.0-1.0","1532714916584","8-412","9630","","","","false","357","596","615","762","[448.22,630.59],[506.99,723.53]","","true","null"
"","learner","13","231205","0.0-6.0-2.0","1532714916584","8-412","10631","","","","false","703","866","600","728","","[561.22,530],[662.43,775.49]","true","null"
"","learner","14","236749","0.0-6.0-3.0","1532714916584","8-412","5538","","","","false","479","668","540","640","[560.35,564.56]","[711.59,518.81]","true","null"
"","learner","15","243845","0.0-6.0-4.0","1532714916584","8-412","7095","","","","false","565","701","392","506","[623.7,431.09]","[286.64,762.75]","true","null"
"","check_point_button","16","258664","0.0-7.0","1532714916584","8-412","14816","","<p><font size='25'>¡FELICITACIONES! <br><br> TERMINASTE EL NIVEL 1</font></p>","0","","","","","","","","",""
"","learner","17","267256","0.0-8.0-0.0","1532714916584","8-412","8590","","","","false","441","627","442","566","","[405.37,559.42],[579.3,387.03]","true","null"
"","learner","18","278840","0.0-8.0-1.0","1532714916584","8-412","11583","","","","false","597","747","525","677","[708.7,646.86],[644.64,544.95]","","true","null"
"","learner","19","285431","0.0-8.0-2.0","1532714916584","8-412","6588","","","","false","348","498","354","450","[412.9,362.37]","[505.67,494.07]","true","null"
"","learner","20","291063","0.0-8.0-3.0","1532714916584","8-412","5630","","","","false","588","737","584","717","[622.19,621.85]","[688.81,483.87]","true","null"
"","learner","21","298728","0.0-8.0-4.0","1532714916584","8-412","7663","","","","false","454","614","325","516","[495.65,495.82],[566.96,340.38]","","true","null"
"","check_point_button","22","300592","0.0-9.0","1532714916584","8-412","1863","","<p><font size='25'>¡FELICITACIONES! <br><br> TERMINASTE EL NIVEL 2</font></p>","0","","","","","","","","",""
"","learner","23","306783","0.0-10.0-0.0","1532714916584","8-412","6190","","","","false","253","405","484","637","","[221.23,708.39],[209.85,362.21]","true","null"
"","learner","24","312911","0.0-10.0-1.0","1532714916584","8-412","6127","","","","false","576","721","633","727","","[462.16,613.33],[552.47,759.1]","true","null"
"","learner","25","318610","0.0-10.0-2.0","1532714916584","8-412","5696","","","","false","606","753","454","574","[651.61,493.48]","[468.3,406.83]","true","null"
"","learner","26","324171","0.0-10.0-3.0","1532714916584","8-412","5558","","","","false","508","764","484","681","[540.79,502.88],[678.37,631.89]","","true","null"
"","learner","27","337258","0.0-10.0-4.0","1532714916584","8-412","13085","","","","false","450","629","562","677","","[502.05,709.78],[550.27,470.48]","true","null"
"","check_point_button","28","339466","0.0-11.0","1532714916584","8-412","2206","","<p><font size='25'>¡FELICITACIONES! <br><br> TERMINASTE EL NIVEL 3</font></p>","0","","","","","","","","",""
"","learner","29","344852","0.0-12.0-0.0","1532714916584","8-412","5383","","","","false","566","707","611","747","[602.13,625.98],[649.35,715.17]","","true","null"
"","learner","30","350084","0.0-12.0-1.0","1532714916584","8-412","5230","","","","false","411","576","398","504","","[349.21,484.29],[312.32,345.68]","true","null"
"","learner","31","355595","0.0-12.0-2.0","1532714916584","8-412","5510","","","","false","280","415","495","627","","[204.39,640.37],[459.4,557.59]","true","null"
"","learner","32","361475","0.0-12.0-3.0","1532714916584","8-412","5879","","","","false","284","458","625","749","[290.18,706.6],[441.18,646.96]","","true","null"
"","learner","33","366195","0.0-12.0-4.0","1532714916584","8-412","4718","","","","false","547","698","582","693","[581.85,614.86]","[752.95,466.38]","true","null"
"","check_point_button","34","368692","0.0-13.0","1532714916584","8-412","2495","","<p><font size='25'>¡FELICITACIONES! <br><br> TERMINASTE EL NIVEL 4</font></p>","0","","","","","","","","",""
"","learner","35","374763","0.0-14.0-0.0","1532714916584","8-412","6070","","","","false","575","748","643","760","[613.46,683.51]","[658.24,466.52]","true","null"
"","learner","36","380119","0.0-14.0-1.0","1532714916584","8-412","5352","","","","false","492","629","430","535","","[412.81,432.58],[652.55,500.08]","true","null"
"","learner","37","390374","0.0-14.0-2.0","1532714916584","8-412","10254","","","","false","375","699","263","459","[393.09,286.77],[618.13,412.39]","","true","null"
"","learner","38","396271","0.0-14.0-3.0","1532714916584","8-412","5895","","","","false","526","680","397","493","","[669.57,518.37],[529.41,322.9]","true","null"
"","learner","39","401519","0.0-14.0-4.0","1532714916584","8-412","5246","","","","false","343","542","490","638","[476.7,510.77],[373.01,602.48]","","true","null"
"","check_point_button","40","403246","0.0-15.0","1532714916584","8-412","1726","","<p><font size='25'>¡FELICITACIONES! <br><br> TERMINASTE EL NIVEL 5</font></p>","0","","","","","","","","",""
"","html-button-response","41","412512","0.0-16.0","1532714916584","8-412","9263","","<p align='center' style='font-size:25px;' > ¡ACORDATE DE QUE ALGUIEN TE DEJÓ ESTAS PISTAS PARA QUE ENCUENTRES LA CAJA! </p>","0","","","","","","","","",""
"","learner","42","417567","0.0-17.0-0.0","1532714916584","8-412","5054","","","","false","377","548","486","617","[420.09,519.8]","[515.89,746.61]","true","null"
"","learner","43","423319","0.0-17.0-1.0","1532714916584","8-412","5751","","","","false","475","647","568","705","","[645.23,766.44],[436.03,454.76]","true","null"
"","learner","44","427711","0.0-17.0-2.0","1532714916584","8-412","4390","","","","false","245","396","552","651","[284.68,577.08]","[305.47,699.72]","true","null"
"","learner","45","431823","0.0-17.0-3.0","1532714916584","8-412","4111","","","","false","482","627","471","561","[537.09,499.71]","[378.39,566.26]","true","null"
"","learner","46","437967","0.0-17.0-4.0","1532714916584","8-412","6143","","","","false","472","640","510","608","[513.31,529.22]","[488.85,720.83]","true","null"
"","check_point_button","47","440234","0.0-18.0","1532714916584","8-412","2266","","<p><font size='25'>¡FELICITACIONES! <br><br> TERMINASTE EL NIVEL 6</font></p>","0","","","","","","","","",""
"","learner","48","445018","0.0-19.0-0.0","1532714916584","8-412","4782","","","","false","485","647","533","620","[546.44,554.32]","[636.89,642.83]","true","null"
"","learner","49","449474","0.0-19.0-1.0","1532714916584","8-412","4455","","","","false","589","730","457","542","[607.13,487.4]","[514.78,343.56]","true","null"
"","learner","50","454481","0.0-19.0-2.0","1532714916584","8-412","5006","","","","false","549","696","394","521","","[660.39,658.86],[549.68,272.84]","true","null"
"","learner","51","459082","0.0-19.0-3.0","1532714916584","8-412","4598","","","","false","405","601","696","795","","[351.69,771.25],[586.39,662.19]","true","null"
"","learner","52","465234","0.0-19.0-4.0","1532714916584","8-412","6150","","","","false","456","664","572","696","[477.29,587.32],[607.35,645.16]","","true","null"
"","check_point_button","53","467922","0.0-20.0","1532714916584","8-412","2686","","<p><font size='25'>¡FELICITACIONES! <br><br> TERMINASTE EL NIVEL 7</font></p>","0","","","","","","","","",""
"","learner","54","472866","0.0-21.0-0.0","1532714916584","8-412","4941","","","","false","297","430","610","707","[328.1,649.21]","[326.89,433.7]","true","null"
"","learner","55","476754","0.0-21.0-1.0","1532714916584","8-412","3886","","","","false","466","626","413","547","[577.29,438.6],[480.33,502.04]","","true","null"
"","learner","56","481818","0.0-21.0-2.0","1532714916584","8-412","5063","","","","false","389","540","527","633","","[315.9,489.75],[337.58,619.5]","true","null"
"","learner","57","486033","0.0-21.0-3.0","1532714916584","8-412","4213","","","","false","665","791","505","595","[695.63,543.8]","[762.5,466.63]","true","null"
"","learner","58","491163","0.0-21.0-4.0","1532714916584","8-412","5127","","","","false","679","850","515","636","","[675.37,431.17],[700.75,695.51]","true","null"
"","check_point_button","59","492923","0.0-22.0","1532714916584","8-412","1760","","<p><font size='25'>¡FELICITACIONES! <br><br> TERMINASTE EL NIVEL 8</font></p>","0","","","","","","","","",""
"","learner","60","500693","0.0-23.0-0.0","1532714916584","8-412","7768","","","","false","409","579","369","575","[435.42,554.24],[481.52,382.89]","","true","null"
"","learner","61","506846","0.0-23.0-1.0","1532714916584","8-412","6151","","","","false","377","574","581","703","[533.82,663.93],[404.57,598.41]","","true","null"
"","learner","62","512076","0.0-23.0-2.0","1532714916584","8-412","5229","","","","false","298","513","471","586","","[500.65,696.77],[258.06,338]","true","null"
"","learner","63","517205","0.0-23.0-3.0","1532714916584","8-412","5128","","","","false","551","744","370","467","","[524.63,446.77],[709.06,285.65]","true","null"
"","learner","64","523173","0.0-23.0-4.0","1532714916584","8-412","5966","","","","false","394","546","568","649","[432.22,589.98]","[567.83,456.41]","true","null"
"","check_point_button","65","524942","0.0-24.0","1532714916584","8-412","1768","","<p><font size='25'>¡FELICITACIONES! <br><br> TERMINASTE EL NIVEL 9</font></p>","0","","","","","","","","",""
"","learner","66","530285","0.0-25.0-0.0","1532714916584","8-412","5342","","","","false","584","746","444","552","","[750.91,667.13],[537.43,304.39]","true","null"
"","learner","67","534141","0.0-25.0-1.0","1532714916584","8-412","3854","","","","false","573","743","341","473","","[531.91,516.77],[700.27,200.54]","true","null"
"","learner","68","539588","0.0-25.0-2.0","1532714916584","8-412","5447","","","","false","468","656","320","438","[484.25,368.57],[605.05,401.5]","","true","null"
"","learner","69","543709","0.0-25.0-3.0","1532714916584","8-412","4119","","","","false","519","655","645","732","","[432.99,621.14],[678.2,736.9]","true","null"
"","learner","70","549277","0.0-25.0-4.0","1532714916584","8-412","5567","","","","false","380","500","705","816","[409.57,753.17]","[538.78,584.34]","true","null"
"","check_point_button","71","646876","0.0-26.0","1532714916584","8-412","97597","","<p align='center' style='font-size:30px;' > COMPLETASTE TODOS LOS NIVELES  <br><br> ¡FELICITACIONES!<br><br> PRESIONA CUALQUIER TECLA PARA TERMINAR</p>","0","","","","","","","","",""
